Comment:    Automatically converted from EXFOR at 2022-09-01,12:00:00
            by the IAEA-NDS EXFOR Web-Retrieval System,
            program X4toR33 ver-2021-12-15 (V.Zerkin).
            X4Title: "Absolute cross section measurements for H and D elastic
                      recoil using 1 to 2.5 MeV He-4 ions and for the
                      C-12(d,p)C-13 and O-16(d,p)O-17 nuclear reactions"
            X4Author: V.Quillet, F.Abel, M.Schott
            EXFOR: O0817003    Created: 2000-10-27  Updated: 2019-02-07
            X4Reaction:1-H-2(A,EL)1-H-2,,DA,D,,RECOM; X4Points:1500
From http://Ibaserver.Physics.Isu.Edu/Sigmabase
            ENSDF:LevelEnergy=0.00 keV
            Theta groupping interval=1.0 deg.
            AME2020: M1=4.002603254 M2=2.014101777 M3=4.002603254 M4=2.014101777

Version:      R33
X4Number:     O0817003 20190207
Source:       V.Quillet+(1993), Nucl. Instrum. Methods in Physics Res., Sect.B, Vol.83, p.47
Reaction:     2H(a,d)4He
Distribution: Energy
Sigfactors:   1.00, 0.00
Enfactors:    1.00, 0.00, 0.00, 0.00
Units:        mb
Composition:
Masses:       2.0, 4.0, 2.0, 4.0
Zeds:         1, 2, 1, 2
Qvalue:       0.0, 0.00, 0.00, 0.00, 0.00
Theta:        20
Data:
  1003.00,      0.30,  584.8901,      0.00
  1006.00,      0.30,    583.87,      0.00
  1009.00,      0.30,    582.86,      0.00
  1012.00,      0.30,    581.86,      0.00
  1015.00,      0.30,    580.86,      0.00
  1018.00,      0.30,    579.86,      0.00
  1021.00,      0.30,    578.86,      0.00
  1024.00,      0.30,    577.87,      0.00
  1027.00,      0.30,    576.88,      0.00
  1030.00,      0.30,  575.9001,      0.00
  1033.00,      0.30,    574.92,      0.00
  1036.00,      0.30,    573.94,      0.00
  1039.00,      0.30,    572.97,      0.00
  1042.00,      0.30,    572.00,      0.00
  1045.00,      0.30,  571.0301,      0.00
  1048.00,      0.30,    570.07,      0.00
  1051.00,      0.30,    569.11,      0.00
  1054.00,      0.30,    568.16,      0.00
  1057.00,      0.30,  567.2001,      0.00
  1060.00,      0.30,    566.26,      0.00
  1063.00,      0.30,    565.31,      0.00
  1066.00,      0.30,    564.37,      0.00
  1069.00,      0.30,    563.44,      0.00
  1072.00,      0.30,    562.50,      0.00
  1075.00,      0.30,    561.57,      0.00
  1078.00,      0.30,  560.6501,      0.00
  1081.00,      0.30,    559.73,      0.00
  1084.00,      0.30,    558.81,      0.00
  1087.00,      0.30,  557.9001,      0.00
  1090.00,      0.30,    556.99,      0.00
  1093.00,      0.30,    556.08,      0.00
  1096.00,      0.30,    555.18,      0.00
  1099.00,      0.30,    554.28,      0.00
  1102.00,      0.30,    553.38,      0.00
  1105.00,      0.30,    552.49,      0.00
  1108.00,      0.30,    551.60,      0.00
  1111.00,      0.30,    550.72,      0.00
  1114.00,      0.30,    549.84,      0.00
  1117.00,      0.30,    548.96,      0.00
  1120.00,      0.30,    548.09,      0.00
  1123.00,      0.30,    547.22,      0.00
  1126.00,      0.30,    546.35,      0.00
  1129.00,      0.30,    545.49,      0.00
  1132.00,      0.30,  544.6301,      0.00
  1135.00,      0.30,    543.78,      0.00
  1138.00,      0.30,    542.93,      0.00
  1141.00,      0.30,    542.08,      0.00
  1144.00,      0.30,    541.24,      0.00
  1147.00,      0.30,    540.40,      0.00
  1150.00,      0.30,    539.56,      0.00
  1153.00,      0.30,    538.73,      0.00
  1156.00,      0.30,    537.90,      0.00
  1159.00,      0.30,    537.08,      0.00
  1162.00,      0.30,    536.26,      0.00
  1165.00,      0.30,    535.44,      0.00
  1168.00,      0.30,    534.63,      0.00
  1171.00,      0.30,    533.82,      0.00
  1174.00,      0.30,    533.02,      0.00
  1177.00,      0.30,  532.2101,      0.00
  1180.00,      0.30,    531.42,      0.00
  1183.00,      0.30,    530.62,      0.00
  1186.00,      0.30,    529.83,      0.00
  1189.00,      0.30,    529.05,      0.00
  1192.00,      0.30,  528.2601,      0.00
  1195.00,      0.30,    527.49,      0.00
  1198.00,      0.30,    526.71,      0.00
  1201.00,      0.30,    525.94,      0.00
  1204.00,      0.30,    525.17,      0.00
  1207.00,      0.30,    524.41,      0.00
  1210.00,      0.30,  523.6501,      0.00
  1213.00,      0.30,    522.90,      0.00
  1216.00,      0.30,    522.14,      0.00
  1219.00,      0.30,    521.40,      0.00
  1222.00,      0.30,    520.65,      0.00
  1225.00,      0.30,    519.91,      0.00
  1228.00,      0.30,    519.18,      0.00
  1231.00,      0.30,    518.44,      0.00
  1234.00,      0.30,    517.71,      0.00
  1237.00,      0.30,    516.99,      0.00
  1240.00,      0.30,    516.27,      0.00
  1243.00,      0.30,    515.55,      0.00
  1246.00,      0.30,  514.8401,      0.00
  1249.00,      0.30,  514.1301,      0.00
  1252.00,      0.30,    513.43,      0.00
  1255.00,      0.30,    512.72,      0.00
  1258.00,      0.30,  512.0301,      0.00
  1261.00,      0.30,    511.33,      0.00
  1264.00,      0.30,    510.64,      0.00
  1267.00,      0.30,    509.96,      0.00
  1270.00,      0.30,    509.28,      0.00
  1273.00,      0.30,  508.6001,      0.00
  1276.00,      0.30,    507.93,      0.00
  1279.00,      0.30,    507.26,      0.00
  1282.00,      0.30,    506.59,      0.00
  1285.00,      0.30,    505.93,      0.00
  1288.00,      0.30,    505.27,      0.00
  1291.00,      0.30,    504.62,      0.00
  1294.00,      0.30,    503.97,      0.00
  1297.00,      0.30,    503.32,      0.00
  1300.00,      0.30,    502.68,      0.00
  1303.00,      0.30,    502.04,      0.00
  1306.00,      0.30,    501.41,      0.00
  1309.00,      0.30,    500.78,      0.00
  1312.00,      0.30,    500.15,      0.00
  1315.00,      0.30,    499.53,      0.00
  1318.00,      0.30,    498.91,      0.00
  1321.00,      0.30,    498.30,      0.00
  1324.00,      0.30,    497.69,      0.00
  1327.00,      0.30,    497.08,      0.00
  1330.00,      0.30,    496.48,      0.00
  1333.00,      0.30,    495.88,      0.00
  1336.00,      0.30,    495.29,      0.00
  1339.00,      0.30,    494.70,      0.00
  1342.00,      0.30,    494.12,      0.00
  1345.00,      0.30,    493.54,      0.00
  1348.00,      0.30,    492.96,      0.00
  1351.00,      0.30,    492.39,      0.00
  1354.00,      0.30,    491.82,      0.00
  1357.00,      0.30,    491.25,      0.00
  1360.00,      0.30,    490.69,      0.00
  1363.00,      0.30,  490.1401,      0.00
  1366.00,      0.30,    489.59,      0.00
  1369.00,      0.30,    489.04,      0.00
  1372.00,      0.30,    488.49,      0.00
  1375.00,      0.30,    487.96,      0.00
  1378.00,      0.30,    487.42,      0.00
  1381.00,      0.30,    486.89,      0.00
  1384.00,      0.30,    486.36,      0.00
  1387.00,      0.30,    485.84,      0.00
  1390.00,      0.30,    485.32,      0.00
  1393.00,      0.30,    484.81,      0.00
  1396.00,      0.30,    484.30,      0.00
  1399.00,      0.30,    483.79,      0.00
  1402.00,      0.30,    483.29,      0.00
  1405.00,      0.30,    482.80,      0.00
  1408.00,      0.30,    482.31,      0.00
  1411.00,      0.30,    481.82,      0.00
  1414.00,      0.30,    481.33,      0.00
  1417.00,      0.30,    480.86,      0.00
  1420.00,      0.30,    480.38,      0.00
  1423.00,      0.30,    479.91,      0.00
  1426.00,      0.30,    479.45,      0.00
  1429.00,      0.30,    478.98,      0.00
  1432.00,      0.30,    478.53,      0.00
  1435.00,      0.30,    478.08,      0.00
  1438.00,      0.30,    477.63,      0.00
  1441.00,      0.30,    477.18,      0.00
  1444.00,      0.30,    476.75,      0.00
  1447.00,      0.30,    476.31,      0.00
  1450.00,      0.30,    475.88,      0.00
  1453.00,      0.30,    475.46,      0.00
  1456.00,      0.30,    475.04,      0.00
  1459.00,      0.30,    474.62,      0.00
  1462.00,      0.30,    474.21,      0.00
  1465.00,      0.30,    473.80,      0.00
  1468.00,      0.30,    473.40,      0.00
  1471.00,      0.30,    473.01,      0.00
  1474.00,      0.30,    472.61,      0.00
  1477.00,      0.30,    472.23,      0.00
  1480.00,      0.30,    471.84,      0.00
  1483.00,      0.30,    471.47,      0.00
  1486.00,      0.30,    471.09,      0.00
  1489.00,      0.30,    470.73,      0.00
  1492.00,      0.30,    470.36,      0.00
  1495.00,      0.30,    470.00,      0.00
  1498.00,      0.30,    469.65,      0.00
  1501.00,      0.30,    469.30,      0.00
  1504.00,      0.30,    468.96,      0.00
  1507.00,      0.30,    468.62,      0.00
  1510.00,      0.30,    468.29,      0.00
  1513.00,      0.30,    467.96,      0.00
  1516.00,      0.30,    467.64,      0.00
  1519.00,      0.30,    467.32,      0.00
  1522.00,      0.30,    467.00,      0.00
  1525.00,      0.30,    466.70,      0.00
  1528.00,      0.30,    466.39,      0.00
  1531.00,      0.30,    466.10,      0.00
  1534.00,      0.30,    465.81,      0.00
  1537.00,      0.30,    465.52,      0.00
  1540.00,      0.30,    465.24,      0.00
  1543.00,      0.30,    464.96,      0.00
  1546.00,      0.30,    464.69,      0.00
  1549.00,      0.30,    464.43,      0.00
  1552.00,      0.30,    464.17,      0.00
  1555.00,      0.30,    463.91,      0.00
  1558.00,      0.30,    463.67,      0.00
  1561.00,      0.30,    463.42,      0.00
  1564.00,      0.30,    463.19,      0.00
  1567.00,      0.30,    462.96,      0.00
  1570.00,      0.30,    462.73,      0.00
  1573.00,      0.30,    462.51,      0.00
  1576.00,      0.30,    462.30,      0.00
  1579.00,      0.30,    462.09,      0.00
  1582.00,      0.30,    461.89,      0.00
  1585.00,      0.30,    461.69,      0.00
  1588.00,      0.30,    461.50,      0.00
  1591.00,      0.30,    461.32,      0.00
  1594.00,      0.30,    461.15,      0.00
  1597.00,      0.30,    460.97,      0.00
  1600.00,      0.30,    460.81,      0.00
  1603.00,      0.30,    460.65,      0.00
  1606.00,      0.30,    460.50,      0.00
  1609.00,      0.30,    460.36,      0.00
  1612.00,      0.30,    460.22,      0.00
  1615.00,      0.30,    460.09,      0.00
  1618.00,      0.30,    459.96,      0.00
  1621.00,      0.30,    459.84,      0.00
  1624.00,      0.30,    459.73,      0.00
  1627.00,      0.30,    459.63,      0.00
  1630.00,      0.30,    459.53,      0.00
  1633.00,      0.30,    459.44,      0.00
  1636.00,      0.30,    459.36,      0.00
  1639.00,      0.30,    459.29,      0.00
  1642.00,      0.30,    459.22,      0.00
  1645.00,      0.30,    459.16,      0.00
  1648.00,      0.30,    459.11,      0.00
  1651.00,      0.30,    459.06,      0.00
  1654.00,      0.30,    459.03,      0.00
  1657.00,      0.30,    459.00,      0.00
  1660.00,      0.30,    458.98,      0.00
  1663.00,      0.30,    458.96,      0.00
  1666.00,      0.30,    458.96,      0.00
  1669.00,      0.30,    458.96,      0.00
  1672.00,      0.30,    458.98,      0.00
  1675.00,      0.30,    459.00,      0.00
  1678.00,      0.30,    459.03,      0.00
  1681.00,      0.30,    459.07,      0.00
  1684.00,      0.30,    459.12,      0.00
  1687.00,      0.30,    459.18,      0.00
  1690.00,      0.30,    459.24,      0.00
  1693.00,      0.30,    459.32,      0.00
  1696.00,      0.30,    459.41,      0.00
  1699.00,      0.30,    459.50,      0.00
  1702.00,      0.30,    459.61,      0.00
  1705.00,      0.30,    459.73,      0.00
  1708.00,      0.30,    459.85,      0.00
  1711.00,      0.30,    459.99,      0.00
  1714.00,      0.30,    460.14,      0.00
  1717.00,      0.30,    460.30,      0.00
  1720.00,      0.30,    460.47,      0.00
  1723.00,      0.30,    460.66,      0.00
  1726.00,      0.30,    460.85,      0.00
  1729.00,      0.30,    461.06,      0.00
  1732.00,      0.30,    461.28,      0.00
  1735.00,      0.30,    461.51,      0.00
  1738.00,      0.30,    461.76,      0.00
  1741.00,      0.30,    462.01,      0.00
  1744.00,      0.30,    462.28,      0.00
  1747.00,      0.30,    462.57,      0.00
  1750.00,      0.30,    462.87,      0.00
  1753.00,      0.30,    463.18,      0.00
  1756.00,      0.30,    463.51,      0.00
  1759.00,      0.30,    463.85,      0.00
  1762.00,      0.30,    464.21,      0.00
  1765.00,      0.30,    464.59,      0.00
  1768.00,      0.30,    464.98,      0.00
  1771.00,      0.30,    465.39,      0.00
  1774.00,      0.30,    465.81,      0.00
  1777.00,      0.30,    466.25,      0.00
  1780.00,      0.30,    466.71,      0.00
  1783.00,      0.30,    467.19,      0.00
  1786.00,      0.30,    467.69,      0.00
  1789.00,      0.30,    468.21,      0.00
  1792.00,      0.30,    468.75,      0.00
  1795.00,      0.30,    469.31,      0.00
  1798.00,      0.30,    469.89,      0.00
  1801.00,      0.30,    470.49,      0.00
  1804.00,      0.30,    471.11,      0.00
  1807.00,      0.30,    471.76,      0.00
  1810.00,      0.30,    472.44,      0.00
  1813.00,      0.30,    473.13,      0.00
  1816.00,      0.30,    473.86,      0.00
  1819.00,      0.30,    474.61,      0.00
  1822.00,      0.30,    475.39,      0.00
  1825.00,      0.30,    476.19,      0.00
  1828.00,      0.30,    477.03,      0.00
  1831.00,      0.30,    477.89,      0.00
  1834.00,      0.30,    478.79,      0.00
  1837.00,      0.30,    479.72,      0.00
  1840.00,      0.30,    480.68,      0.00
  1843.00,      0.30,    481.68,      0.00
  1846.00,      0.30,    482.72,      0.00
  1849.00,      0.30,    483.79,      0.00
  1852.00,      0.30,    484.91,      0.00
  1855.00,      0.30,    486.06,      0.00
  1858.00,      0.30,    487.25,      0.00
  1861.00,      0.30,    488.49,      0.00
  1864.00,      0.30,    489.78,      0.00
  1867.00,      0.30,    491.11,      0.00
  1870.00,      0.30,    492.50,      0.00
  1873.00,      0.30,    493.93,      0.00
  1876.00,      0.30,    495.42,      0.00
  1879.00,      0.30,    496.97,      0.00
  1882.00,      0.30,    498.57,      0.00
  1885.00,      0.30,    500.24,      0.00
  1888.00,      0.30,  501.9701,      0.00
  1891.00,      0.30,    503.77,      0.00
  1894.00,      0.30,    505.64,      0.00
  1897.00,      0.30,    507.59,      0.00
  1900.00,      0.30,    509.61,      0.00
  1903.00,      0.30,    511.71,      0.00
  1906.00,      0.30,    513.90,      0.00
  1909.00,      0.30,    516.18,      0.00
  1912.00,      0.30,    518.55,      0.00
  1915.00,      0.30,  521.0201,      0.00
  1918.00,      0.30,    523.60,      0.00
  1921.00,      0.30,    526.29,      0.00
  1924.00,      0.30,    529.09,      0.00
  1927.00,      0.30,    532.02,      0.00
  1930.00,      0.30,    535.08,      0.00
  1933.00,      0.30,  538.2701,      0.00
  1936.00,      0.30,    541.61,      0.00
  1939.00,      0.30,    545.10,      0.00
  1942.00,      0.30,  548.7601,      0.00
  1945.00,      0.30,  552.5801,      0.00
  1948.00,      0.30,    556.60,      0.00
  1951.00,      0.30,    560.80,      0.00
  1954.00,      0.30,    565.21,      0.00
  1957.00,      0.30,    569.85,      0.00
  1960.00,      0.30,    574.72,      0.00
  1963.00,      0.30,  579.8401,      0.00
  1966.00,      0.30,    585.22,      0.00
  1969.00,      0.30,  590.9001,      0.00
  1972.00,      0.30,    596.88,      0.00
  1975.00,      0.30,    603.19,      0.00
  1978.00,      0.30,    609.85,      0.00
  1981.00,      0.30,  616.8901,      0.00
  1984.00,      0.30,    624.33,      0.00
  1987.00,      0.30,    632.22,      0.00
  1990.00,      0.30,    640.57,      0.00
  1993.00,      0.30,  649.4401,      0.00
  1996.00,      0.30,    658.86,      0.00
  1999.00,      0.30,    668.87,      0.00
  2002.00,      0.30,  679.5301,      0.00
  2005.00,      0.30,    690.90,      0.00
  2008.00,      0.30,    703.02,      0.00
  2011.00,      0.30,    715.98,      0.00
  2014.00,      0.30,    729.84,      0.00
  2017.00,      0.30,  744.6901,      0.00
  2020.00,      0.30,    760.63,      0.00
  2023.00,      0.30,    777.75,      0.00
  2026.00,      0.30,    796.17,      0.00
  2029.00,      0.30,  816.0201,      0.00
  2032.00,      0.30,    837.44,      0.00
  2035.00,      0.30,    860.60,      0.00
  2038.00,      0.30,    885.68,      0.00
  2041.00,      0.30,  912.8801,      0.00
  2044.00,      0.30,    942.43,      0.00
  2047.00,      0.30,  974.5901,      0.00
  2050.00,      0.30, 1009.6501,      0.00
  2053.00,      0.30, 1047.9301,      0.00
  2056.00,      0.30, 1089.8101,      0.00
  2059.00,      0.30,   1135.70,      0.00
  2062.00,      0.30,   1186.05,      0.00
  2065.00,      0.30, 1241.3901,      0.00
  2068.00,      0.30, 1302.2901,      0.00
  2071.00,      0.30, 1369.3801,      0.00
  2074.00,      0.30, 1443.3501,      0.00
  2077.00,      0.30,   1524.95,      0.00
  2080.00,      0.30, 1614.9501,      0.00
  2083.00,      0.30, 1714.1501,      0.00
  2086.00,      0.30, 1823.3101,      0.00
  2089.00,      0.30, 1943.1301,      0.00
  2092.00,      0.30, 2074.0902,      0.00
  2095.00,      0.30,   2216.41,      0.00
  2098.00,      0.30,   2369.78,      0.00
  2101.00,      0.30,   2533.23,      0.00
  2104.00,      0.30, 2704.8001,      0.00
  2107.00,      0.30, 2881.3202,      0.00
  2110.00,      0.30, 3058.1203,      0.00
  2113.00,      0.30,   3229.02,      0.00
  2116.00,      0.30, 3386.3602,      0.00
  2119.00,      0.30, 3521.6103,      0.00
  2122.00,      0.30, 3626.1203,      0.00
  2125.00,      0.30,   3692.40,      0.00
  2128.00,      0.30, 3715.2903,      0.00
  2131.00,      0.30,   3692.97,      0.00
  2134.00,      0.30, 3627.2702,      0.00
  2137.00,      0.30, 3523.3302,      0.00
  2140.00,      0.30,   3388.67,      0.00
  2143.00,      0.30,   3231.90,      0.00
  2146.00,      0.30, 3061.5802,      0.00
  2149.00,      0.30, 2885.3502,      0.00
  2152.00,      0.30,   2709.41,      0.00
  2155.00,      0.30,   2538.42,      0.00
  2158.00,      0.30, 2375.5403,      0.00
  2161.00,      0.30, 2222.7502,      0.00
  2164.00,      0.30,   2081.01,      0.00
  2167.00,      0.30,   1950.62,      0.00
  2170.00,      0.30, 1831.3801,      0.00
  2173.00,      0.30, 1722.8001,      0.00
  2176.00,      0.30, 1624.1701,      0.00
  2179.00,      0.30, 1534.7501,      0.00
  2182.00,      0.30, 1453.7301,      0.00
  2185.00,      0.30,   1380.33,      0.00
  2188.00,      0.30,   1313.82,      0.00
  2191.00,      0.30, 1253.5001,      0.00
  2194.00,      0.30,   1198.73,      0.00
  2197.00,      0.30,   1148.95,      0.00
  2200.00,      0.30, 1103.6501,      0.00
  2203.00,      0.30,   1062.34,      0.00
  2206.00,      0.30, 1024.6401,      0.00
  2209.00,      0.30,  990.1501,      0.00
  2212.00,      0.30,  958.5701,      0.00
  2215.00,      0.30,    929.60,      0.00
  2218.00,      0.30,    902.97,      0.00
  2221.00,      0.30,    878.47,      0.00
  2224.00,      0.30,    855.89,      0.00
  2227.00,      0.30,    835.04,      0.00
  2230.00,      0.30,    815.77,      0.00
  2233.00,      0.30,    797.92,      0.00
  2236.00,      0.30,  781.3801,      0.00
  2239.00,      0.30,  766.0201,      0.00
  2242.00,      0.30,  751.7501,      0.00
  2245.00,      0.30,  738.4601,      0.00
  2248.00,      0.30,  726.0801,      0.00
  2251.00,      0.30,  714.5301,      0.00
  2254.00,      0.30,    703.74,      0.00
  2257.00,      0.30,    693.66,      0.00
  2260.00,      0.30,    684.22,      0.00
  2263.00,      0.30,  675.3801,      0.00
  2266.00,      0.30,  667.0901,      0.00
  2269.00,      0.30,    659.31,      0.00
  2272.00,      0.30,    652.00,      0.00
  2275.00,      0.30,    645.13,      0.00
  2278.00,      0.30,    638.67,      0.00
  2281.00,      0.30,    632.58,      0.00
  2284.00,      0.30,    626.85,      0.00
  2287.00,      0.30,  621.4501,      0.00
  2290.00,      0.30,    616.35,      0.00
  2293.00,      0.30,    611.54,      0.00
  2296.00,      0.30,  607.0001,      0.00
  2299.00,      0.30,  602.7001,      0.00
  2302.00,      0.30,    598.65,      0.00
  2305.00,      0.30,    594.81,      0.00
  2308.00,      0.30,    591.18,      0.00
  2311.00,      0.30,    587.75,      0.00
  2314.00,      0.30,    584.50,      0.00
  2317.00,      0.30,    581.42,      0.00
  2320.00,      0.30,    578.50,      0.00
  2323.00,      0.30,    575.74,      0.00
  2326.00,      0.30,    573.12,      0.00
  2329.00,      0.30,    570.64,      0.00
  2332.00,      0.30,    568.29,      0.00
  2335.00,      0.30,    566.06,      0.00
  2338.00,      0.30,  563.9501,      0.00
  2341.00,      0.30,    561.95,      0.00
  2344.00,      0.30,    560.05,      0.00
  2347.00,      0.30,    558.26,      0.00
  2350.00,      0.30,    556.56,      0.00
  2353.00,      0.30,    554.94,      0.00
  2356.00,      0.30,    553.42,      0.00
  2359.00,      0.30,    551.97,      0.00
  2362.00,      0.30,    550.60,      0.00
  2365.00,      0.30,    549.31,      0.00
  2368.00,      0.30,    548.09,      0.00
  2371.00,      0.30,    546.93,      0.00
  2374.00,      0.30,    545.84,      0.00
  2377.00,      0.30,    544.81,      0.00
  2380.00,      0.30,  543.8401,      0.00
  2383.00,      0.30,    542.93,      0.00
  2386.00,      0.30,    542.07,      0.00
  2389.00,      0.30,  541.2601,      0.00
  2392.00,      0.30,  540.5101,      0.00
  2395.00,      0.30,    539.80,      0.00
  2398.00,      0.30,    539.13,      0.00
  2401.00,      0.30,    538.51,      0.00
  2404.00,      0.30,    537.94,      0.00
  2407.00,      0.30,  537.4001,      0.00
  2410.00,      0.30,    536.90,      0.00
  2413.00,      0.30,    536.45,      0.00
  2416.00,      0.30,    536.02,      0.00
  2419.00,      0.30,    535.63,      0.00
  2422.00,      0.30,    535.28,      0.00
  2425.00,      0.30,    534.96,      0.00
  2428.00,      0.30,    534.67,      0.00
  2431.00,      0.30,    534.41,      0.00
  2434.00,      0.30,    534.18,      0.00
  2437.00,      0.30,    533.98,      0.00
  2440.00,      0.30,    533.81,      0.00
  2443.00,      0.30,    533.66,      0.00
  2446.00,      0.30,    533.54,      0.00
  2449.00,      0.30,  533.4401,      0.00
  2452.00,      0.30,    533.37,      0.00
  2455.00,      0.30,    533.32,      0.00
  2458.00,      0.30,    533.29,      0.00
  2461.00,      0.30,    533.29,      0.00
  2464.00,      0.30,    533.31,      0.00
  2467.00,      0.30,    533.35,      0.00
  2470.00,      0.30,    533.41,      0.00
  2473.00,      0.30,    533.48,      0.00
  2476.00,      0.30,  533.5801,      0.00
  2479.00,      0.30,    533.70,      0.00
  2482.00,      0.30,    533.83,      0.00
  2485.00,      0.30,    533.98,      0.00
  2488.00,      0.30,  534.1501,      0.00
  2491.00,      0.30,    534.34,      0.00
  2494.00,      0.30,    534.54,      0.00
  2497.00,      0.30,  534.7601,      0.00
  2500.00,      0.30,    534.99,      0.00
EndData:
