Comment:    Automatically converted from EXFOR at 2020-10-01,13:36:04
            by the IAEA-NDS EXFOR Web-Retrieval System,
            program X4toR33 ver-2020-05-11 (V.Zerkin).
            X4Title: "A Study of Nuclear Levels in 32S by the Reaction
                      28Si(alpha,alpha)28Si and Single Particle Potential
                      Representation"
            X4Author: M.K.Leung
            EXFOR: C2100010    Created: 2014-04-14  Updated: 2014-07-09
            X4Reaction:14-SI-28(A,EL)14-SI-28,,DA; X4Points:724
            ENSDF:LevelEnergy=0.00
            Systematic uncertainty: ErrSys=6.41%
            AME2016: M1=4.002603254 M2=27.976926534 M3=4.002603254 M4=27.976926534

Version:      R33
X4Number:     C2100010 20140709
Source:       M.K.Leung(1972), Thes. Thesis or dissertation, Name.Leung
Reaction:     28Si(a,a0)28Si
Distribution: Energy
Sigfactors:   1.00, 0.0641
Enfactors:    1.00, 0.00, 0.00, 0.00
Units:        mb
Composition:
Masses:       4.0, 28.0, 4.0, 28.0
Zeds:         2, 14, 2, 14
Qvalue:       0.0, 0.00, 0.00, 0.00, 0.00
Theta:        165
Data:
  2424.00,      0.00,   252.606,    5.3047
  2435.00,      0.00,    249.05,    5.2301
  2443.00,      0.00,   245.521,    5.1559
  2447.00,      0.00,   254.141,     5.337
  2454.00,      0.00,    254.95,    5.3539
  2461.00,      0.00,   258.357,    5.4255
  2469.00,      0.00,   266.073,    5.5875
  2492.00,      0.00,  248.5625,   11.4066
  2501.00,      0.00,    251.95,    5.2909
  2508.00,      0.00,   257.954,     5.417
  2510.00,      0.00,    251.01,    5.2712
  2513.00,      0.00,   239.728,    5.0343
  2519.00,      0.00,   238.806,    5.0149
  2523.00,      0.00,   232.718,    4.8871
  2527.00,      0.00,   227.486,    4.7772
  2530.00,      0.00,   223.129,    4.6857
  2534.00,      0.00,   231.758,    4.8669
  2537.00,      0.00,   229.999,      4.83
  2540.00,      0.00,   224.776,    4.7203
  2543.00,      0.00,    226.48,    4.7561
  2548.00,      0.00,   220.382,     4.628
  2552.00,      0.00,   216.882,    4.5545
  2553.00,      0.00,    231.59,    4.8634
  2558.00,      0.00,   214.238,     4.499
  2562.00,      0.00,   219.395,    4.6073
  2568.00,      0.00,    215.01,    4.5152
  2573.00,      0.00,   208.913,    4.3872
  2579.00,      0.00,   211.454,    4.4405
  2587.00,      0.00,   206.194,    4.3301
  2590.00,      0.00,   214.823,    4.5113
  2595.00,      0.00,   219.114,    4.6014
  2598.00,      0.00,    206.10,    4.3281
  2609.00,      0.00,   204.275,    4.2898
  2612.00,      0.00,   208.575,    4.3801
  2615.00,      0.00,   213.751,    4.4888
  2623.00,      0.00,   209.347,    4.3963
  2627.00,      0.00,   217.111,    4.5593
  2633.00,      0.00,   210.995,    4.4309
  2639.00,      0.00,   208.351,    4.3754
  2643.00,      0.00,   197.059,    4.1382
  2646.00,      0.00,   203.091,    4.2649
  2650.00,      0.00,   196.993,    4.1369
  2654.00,      0.00,   192.637,    4.0454
  2661.00,      0.00,    196.90,    4.1349
  2666.00,      0.00,   189.071,    3.9705
  2670.00,      0.00,   183.839,    3.8606
  2674.00,      0.00,   188.996,    3.9689
  2678.00,      0.00,   184.639,    3.8774
  2681.00,      0.00,   188.074,    3.9496
  2689.00,      0.00,   181.949,    3.8209
  2694.00,      0.00,   181.902,    3.8199
  2699.00,      0.00,   184.461,    3.8737
  2702.00,      0.00,   191.359,    4.0185
  2707.00,      0.00,   185.252,    3.8903
  2709.00,      0.00,   179.174,    3.7627
  2715.00,      0.00,   178.261,    3.7435
  2716.00,      0.00,   183.446,    3.8524
  2721.00,      0.00,   178.205,    3.7423
  2728.00,      0.00,   177.283,    3.7229
  2733.00,      0.00,   169.445,    3.5583
  2739.00,      0.00,   177.189,     3.721
  2742.00,      0.00,   172.833,    3.6295
  2749.00,      0.00,   171.911,    3.6101
  2756.00,      0.00,   174.442,    3.6633
  2761.00,      0.00,   171.808,     3.608
  2764.00,      0.00,   175.242,    3.6801
  2770.00,      0.00,   171.733,    3.6064
  2772.00,      0.00,   176.042,    3.6969
  2780.00,      0.00,   176.843,    3.7137
  2787.00,      0.00,   175.046,     3.676
  2796.00,      0.00,   174.971,    3.6744
  2804.00,      0.00,   172.308,    3.6185
  2812.00,      0.00,   160.113,    3.3624
  2815.00,      0.00,   168.751,    3.5438
  2820.00,      0.00,   174.764,      3.67
  2827.00,      0.00,   172.111,    3.6143
  2831.00,      0.00,   170.342,    3.5772
  2833.00,      0.00,   159.069,    3.3404
  2837.00,      0.00,   165.092,    3.4669
  2842.00,      0.00,   160.726,    3.3752
  2847.00,      0.00,   165.008,    3.4652
  2854.00,      0.00,   160.623,    3.3731
  2863.00,      0.00,   164.876,    3.4624
  2867.00,      0.00,   165.705,    3.4798
  2869.00,      0.00,   162.223,    3.4067
  2877.00,      0.00,   162.158,    3.4053
  2923.00,      0.00,   159.167,    3.3425
  2932.00,      0.00,   155.629,    3.2682
  2937.00,      0.00,   154.717,    3.2491
  2943.00,      0.00,    148.61,    3.1208
  2946.00,      0.00,   153.776,    3.2293
  2950.00,      0.00,   156.336,    3.2831
  2952.00,      0.00,   146.794,    3.0827
  2957.00,      0.00,   158.011,    3.3182
  2960.00,      0.00,    154.52,    3.2449
  2967.00,      0.00,   144.075,    3.0256
  2972.00,      0.00,   156.148,    3.2791
  2973.00,      0.00,   148.348,    3.1153
  2978.00,      0.00,   150.041,    3.1509
  2983.00,      0.00,   148.263,    3.1135
  2985.00,      0.00,   156.036,    3.2768
  2994.00,      0.00,   153.364,    3.2206
  3001.00,      0.00,   153.308,    3.2195
  3008.00,      0.00,   149.779,    3.1454
  3015.00,      0.00,   148.857,     3.126
  3020.00,      0.00,   144.482,    3.0341
  3025.00,      0.00,   150.504,    3.1606
  3033.00,      0.00,   146.967,    3.0863
  3042.00,      0.00,   148.623,    3.1211
  3046.00,      0.00,   146.863,    3.0841
  3051.00,      0.00,   151.145,     3.174
  3062.00,      0.00,   151.917,    3.1903
  3066.00,      0.00,   147.551,    3.0986
  3076.00,      0.00,   149.198,    3.1332
  3083.00,      0.00,   149.142,     3.132
  3088.00,      0.00,   144.767,    3.0401
  3092.00,      0.00,   148.201,    3.1122
  3099.00,      0.00,   143.807,    3.0199
  3107.00,      0.00,   142.876,    3.0004
  3126.00,      0.00,   147.911,    3.1061
  3133.00,      0.00,   142.651,    2.9957
  3139.00,      0.00,   144.336,    3.0311
  3144.00,      0.00,   143.423,    3.0119
  3150.00,      0.00,   138.182,    2.9018
  3168.00,      0.00,   144.083,    3.0257
  3179.00,      0.00,   140.526,     2.951
  3189.00,      0.00,   142.173,    2.9856
  3195.00,      0.00,   142.126,    2.9846
  3201.00,      0.00,    142.07,    2.9835
  3207.00,      0.00,   144.621,     3.037
  3214.00,      0.00,   137.629,    2.8902
  3217.00,      0.00,   133.273,    2.7987
  3221.00,      0.00,   139.305,    2.9254
  3225.00,      0.00,   144.461,    3.0337
  3230.00,      0.00,   137.498,    2.8875
  3236.00,      0.00,   137.442,    2.8863
  3242.00,      0.00,   139.127,    2.9217
  3249.00,      0.00,   139.061,    2.9203
  3255.00,      0.00,   135.551,    2.8466
  3262.00,      0.00,    134.62,     2.827
  3269.00,      0.00,   131.967,    2.7713
  3276.00,      0.00,   128.448,    2.6974
  3280.00,      0.00,   136.202,    2.8602
  3289.00,      0.00,   128.335,     2.695
  3295.00,      0.00,   128.279,    2.6939
  3301.00,      0.00,   122.172,    2.5656
  3302.00,      0.00,   117.834,    2.4745
  3307.00,      0.00,   122.982,    2.5826
  3309.00,      0.00,   117.769,    2.4731
  3315.00,      0.00,   125.513,    2.6358
  3318.00,      0.00,   135.008,    2.8352
  3330.00,      0.00,   129.711,    2.7239
  3339.00,      0.00,   127.039,    2.6678
  3343.00,      0.00,   123.538,    2.5943
  3348.00,      0.00,   126.964,    2.6662
  3351.00,      0.00,   120.876,    2.5384
  3357.00,      0.00,   118.232,    2.4829
  3363.00,      0.00,   125.101,    2.6271
  3369.00,      0.00,   122.457,    2.5716
  3376.00,      0.00,   124.123,    2.6066
  3381.00,      0.00,   120.623,    2.5331
  3404.00,      0.00,   120.426,    2.5289
  3419.00,      0.00,   122.892,    2.5807
  3426.00,      0.00,   116.776,    2.4523
  3431.00,      0.00,   114.132,    2.3968
  3434.00,      0.00,   116.701,    2.4507
  3443.00,      0.00,   112.297,    2.3582
  3449.00,      0.00,   113.982,    2.3936
  3452.00,      0.00,   116.551,    2.4476
  3456.00,      0.00,   116.513,    2.4468
  3458.00,      0.00,   110.435,    2.3191
  3462.00,      0.00,   113.869,    2.3912
  3468.00,      0.00,   112.082,    2.3537
  3475.00,      0.00,   118.086,    2.4798
  3478.00,      0.00,   113.729,    2.3883
  3483.00,      0.00,    118.02,    2.4784
  3489.00,      0.00,   115.367,    2.4227
  3497.00,      0.00,   108.375,    2.2759
  3502.00,      0.00,   111.791,    2.3476
  3508.00,      0.00,   109.147,    2.2921
  3513.00,      0.00,   114.295,    2.4002
  3516.00,      0.00,   112.535,    2.3632
  3523.00,      0.00,   106.419,    2.2348
  3536.00,      0.00,   111.501,    2.3415
  3544.00,      0.00,   108.838,    2.2856
  3555.00,      0.00,   107.013,    2.2473
  3560.00,      0.00,   111.295,    2.3372
  3569.00,      0.00,   106.026,    2.2265
  3574.00,      0.00,   112.914,    2.3712
  3580.00,      0.00,   111.992,    2.3518
  3590.00,      0.00,    109.31,    2.2955
  3596.00,      0.00,    104.06,    2.1853
  3601.00,      0.00,   108.351,    2.2754
  3610.00,      0.00,    107.41,    2.2556
  3611.00,      0.00,   103.073,    2.1645
  3623.00,      0.00,   102.104,    2.1442
  3629.00,      0.00,   104.645,    2.1975
  3632.00,      0.00,    96.825,    2.0333
  3637.00,      0.00,   100.251,    2.1053
  3640.00,      0.00,   104.551,    2.1956
  3647.00,      0.00,   101.898,    2.1399
  3653.00,      0.00,   100.976,    2.1205
  3661.00,      0.00,   101.776,    2.1373
  3668.00,      0.00,   104.317,    2.1907
  3673.00,      0.00,   100.807,    2.1169
  3681.00,      0.00,   102.473,    2.1519
  3688.00,      0.00,   103.273,    2.1687
  3693.00,      0.00,    98.907,     2.077
  3697.00,      0.00,     98.87,    2.0763
  3702.00,      0.00,    96.235,    2.0209
  3707.00,      0.00,   101.382,     2.129
  3711.00,      0.00,   101.345,    2.1282
  3717.00,      0.00,    97.835,    2.0545
  3728.00,      0.00,   102.936,    2.1617
  3737.00,      0.00,    99.398,    2.0874
  3742.00,      0.00,     97.62,      2.05
  3750.00,      0.00,    96.689,    2.0305
  3754.00,      0.00,    96.651,    2.0297
  3761.00,      0.00,    87.072,    1.8285
  3765.00,      0.00,    93.095,     1.955
  3769.00,      0.00,    93.057,    1.9542
  3776.00,      0.00,    89.538,    1.8803
  3779.00,      0.00,    92.107,    1.9342
  3784.00,      0.00,    87.741,    1.8426
  3792.00,      0.00,     86.80,    1.8228
  3802.00,      0.00,    94.507,    1.9846
  3808.00,      0.00,    99.655,    2.0928
  3814.00,      0.00,    80.553,    1.6916
  3820.00,      0.00,    83.969,    1.7633
  3825.00,      0.00,    88.251,    1.8533
  3830.00,      0.00,    82.153,    1.7252
  3834.00,      0.00,     81.25,    1.7063
  3836.00,      0.00,    83.829,    1.7604
  3843.00,      0.00,    78.578,    1.6501
  3854.00,      0.00,    55.101,    1.1571
  3861.00,      0.00,    77.553,    1.6286
  3868.00,      0.00,   112.991,    2.3728
  3874.00,      0.00,   117.272,    2.4627
  3884.00,      0.00,   114.591,    2.4064
  3897.00,      0.00,   111.016,    2.3313
  3899.00,      0.00,   104.937,    2.2037
  3913.00,      0.00,    96.158,    2.0193
  3919.00,      0.00,    98.708,    2.0729
  3930.00,      0.00,    98.615,    2.0709
  3946.00,      0.00,    98.474,     2.068
  3947.00,      0.00,    90.674,    1.9042
  3954.00,      0.00,     81.96,    1.7212
  3960.00,      0.00,    87.098,    1.8291
  3967.00,      0.00,    87.908,    1.8461
  3969.00,      0.00,    81.829,    1.7184
  3979.00,      0.00,    83.476,     1.753
  3992.00,      0.00,    81.632,    1.7143
  3997.00,      0.00,    75.526,     1.586
  4000.00,      0.00,    82.433,    1.7311
  4003.00,      0.00,     89.33,    1.8759
  4008.00,      0.00,    93.612,    1.9659
  4013.00,      0.00,    90.111,    1.8923
  4022.00,      0.00,    92.634,    1.9453
  4023.00,      0.00,    86.826,    1.8233
  4027.00,      0.00,    85.341,    1.7922
  4030.00,      0.00,    86.739,    1.8215
  4035.00,      0.00,    84.522,     1.775
  4038.00,      0.00,    84.479,    1.7741
  4042.00,      0.00,    85.156,    1.7883
  4047.00,      0.00,    85.822,    1.8023
  4051.00,      0.00,    85.047,     1.786
  4054.00,      0.00,    87.177,    1.8307
  4058.00,      0.00,    86.402,    1.8144
  4062.00,      0.00,    85.638,    1.7984
  4066.00,      0.00,    84.153,    1.7672
  4068.00,      0.00,    84.841,    1.7817
  4071.00,      0.00,    82.646,    1.7356
  4074.00,      0.00,    81.893,    1.7198
  4076.00,      0.00,    85.474,     1.795
  4077.00,      0.00,    90.497,    1.9004
  4081.00,      0.00,    89.012,    1.8693
  4084.00,      0.00,    87.539,    1.8383
  4086.00,      0.00,    89.668,     1.883
  4088.00,      0.00,    87.484,    1.8372
  4090.00,      0.00,     84.58,    1.7762
  4094.00,      0.00,    83.816,    1.7601
  4098.00,      0.00,    83.041,    1.7439
  4101.00,      0.00,    83.729,    1.7583
  4104.00,      0.00,    83.685,    1.7574
  4108.00,      0.00,    83.642,    1.7565
  4112.00,      0.00,    81.436,    1.7102
  4117.00,      0.00,    83.533,    1.7542
  4122.00,      0.00,    83.479,    1.7531
  4126.00,      0.00,    82.704,    1.7368
  4131.00,      0.00,     83.37,    1.7508
  4134.00,      0.00,    83.327,    1.7499
  4139.00,      0.00,    86.155,    1.8093
  4143.00,      0.00,    83.938,    1.7627
  4148.00,      0.00,    86.046,     1.807
  4153.00,      0.00,    85.992,    1.8058
  4155.00,      0.00,    83.077,    1.7446
  4159.00,      0.00,    85.916,    1.8042
  4165.00,      0.00,    87.281,    1.8329
  4171.00,      0.00,    85.774,    1.8013
  4173.00,      0.00,    90.797,    1.9067
  4177.00,      0.00,    93.625,    4.1735
  4180.00,      0.00,    99.357,    2.0865
  4181.00,      0.00,    102.95,     2.162
  4182.00,      0.00,   107.263,    2.2525
  4184.00,      0.00,  122.7345,   12.5102
  4186.00,      0.00,   154.071,    3.2355
  4188.00,      0.00,   168.462,    3.5377
  4189.00,      0.00,   168.085,     6.846
  4191.00,      0.00,   111.241,   29.0761
  4193.00,      0.00,    62.803,      4.63
  4195.00,      0.00,    58.807,    1.2349
  4199.00,      0.00,    59.484,    1.2492
  4203.00,      0.00,    61.602,    1.2936
  4207.00,      0.00,     63.71,    1.3379
  4212.00,      0.00,    63.655,    1.3368
  4217.00,      0.00,     63.59,    1.3354
  4223.00,      0.00,    62.804,    1.3189
  4227.00,      0.00,    60.588,    1.2723
  4233.00,      0.00,    59.802,    1.2558
  4239.00,      0.00,    58.285,     1.224
  4244.00,      0.00,    54.616,    1.1469
  4252.00,      0.00,    54.529,    1.1451
  4256.00,      0.00,    50.151,    1.0532
  4267.00,      0.00,    47.859,     1.005
  4273.00,      0.00,    53.548,    1.1245
  4278.00,      0.00,    62.862,    1.3201
  4284.00,      0.00,    74.327,    1.5609
  4289.00,      0.00,    77.864,    1.6351
  4295.00,      0.00,     78.52,    1.6489
  4300.00,      0.00,    79.175,    1.6627
  4306.00,      0.00,     80.54,    1.6913
  4312.00,      0.00,    79.034,    1.6597
  4317.00,      0.00,     80.41,    1.6886
  4323.00,      0.00,    81.065,    1.7024
  4328.00,      0.00,    83.162,    1.7464
  4335.00,      0.00,    85.237,      1.79
  4340.00,      0.00,    84.462,    1.7737
  4341.00,      0.00,    89.495,    1.8794
  4344.00,      0.00,    91.625,    1.9241
  4346.00,      0.00,     89.43,     1.878
  4348.00,      0.00,    96.615,    2.0289
  4350.00,      0.00,   101.637,    2.1344
  4353.00,      0.00,   105.208,    2.2094
  4354.00,      0.00,    119.61,    2.5118
  4355.00,      0.00,   138.335,     2.905
  4358.00,      0.00,   193.081,    4.0547
  4361.00,      0.00,   247.827,    5.2044
  4364.00,      0.00,   239.147,    5.0221
  4365.00,      0.00,   154.801,    3.2508
  4367.00,      0.00,    74.768,    1.5701
  4368.00,      0.00,    40.876,    0.8584
  4372.00,      0.00,    30.013,    0.6303
  4375.00,      0.00,    26.377,    0.5539
  4377.00,      0.00,    18.428,     0.387
  4379.00,      0.00,    36.422,    0.7649
  4382.00,      0.00,    39.272,    0.8247
  4384.00,      0.00,    42.122,    0.8846
  4387.00,      0.00,    40.648,    0.8536
  4390.00,      0.00,    44.939,    0.9437
  4396.00,      0.00,    43.422,    0.9119
  4402.00,      0.00,    42.636,    0.8954
  4405.00,      0.00,    44.034,    0.9247
  4413.00,      0.00,    43.936,    0.9227
  4419.00,      0.00,    56.121,    1.1785
  4425.00,      0.00,    66.145,     1.389
  4430.00,      0.00,    63.918,    1.3423
  4437.00,      0.00,    66.724,    1.4012
  4441.00,      0.00,    63.067,    1.3244
  4447.00,      0.00,    64.432,    1.3531
  4453.00,      0.00,    63.646,    1.3366
  4457.00,      0.00,     62.15,    1.3052
  4462.00,      0.00,    62.096,     1.304
  4466.00,      0.00,    62.762,     1.318
  4470.00,      0.00,    67.043,    1.4079
  4475.00,      0.00,    60.492,    1.2703
  4480.00,      0.00,    56.834,    1.1935
  4484.00,      0.00,    65.438,    1.3742
  4487.00,      0.00,     60.35,    1.2673
  4490.00,      0.00,    59.597,    1.2515
  4494.00,      0.00,    61.705,    1.2958
  4499.00,      0.00,    57.327,    1.2039
  4503.00,      0.00,    59.434,    1.2481
  4513.00,      0.00,    52.829,    1.1094
  4516.00,      0.00,    46.311,    0.9725
  4518.00,      0.00,    41.234,    0.8659
  4520.00,      0.00,    52.021,    1.0924
  4522.00,      0.00,    61.368,    1.2887
  4526.00,      0.00,     68.53,    1.4391
  4530.00,      0.00,    69.208,    1.4534
  4533.00,      0.00,    67.002,     1.407
  4535.00,      0.00,    63.377,    1.3309
  4539.00,      0.00,    61.172,    1.2846
  4543.00,      0.00,    61.838,    1.2986
  4544.00,      0.00,    58.224,    1.2227
  4549.00,      0.00,    59.611,    1.2518
  4553.00,      0.00,     63.16,    1.3264
  4559.00,      0.00,    61.653,    1.2947
  4563.00,      0.00,    61.239,    4.5971
  4568.00,      0.00,    59.383,     1.247
  4572.00,      0.00,    60.049,     1.261
  4577.00,      0.00,    59.995,    1.2599
  4581.00,      0.00,     59.22,    1.2436
  4587.00,      0.00,    56.993,    1.1969
  4592.00,      0.00,    56.927,    1.1955
  4602.00,      0.00,    48.881,    1.0265
  4609.00,      0.00,    49.515,    1.0398
  4616.00,      0.00,     50.88,    1.0685
  4623.00,      0.00,    52.955,    1.1121
  4629.00,      0.00,    44.952,     0.944
  4636.00,      0.00,    46.306,    0.9724
  4649.00,      0.00,    46.874,    0.9843
  4653.00,      0.00,    44.669,     0.938
  4657.00,      0.00,    40.291,    0.8461
  4662.00,      0.00,    40.946,    0.8599
  4667.00,      0.00,     38.73,    0.8133
  4671.00,      0.00,    36.525,     0.767
  4676.00,      0.00,    37.901,    0.7959
  4681.00,      0.00,    65.951,     1.385
  4684.00,      0.00,    71.683,    1.5053
  4686.00,      0.00,    65.896,    1.3838
  4688.00,      0.00,    60.819,    1.2772
  4694.00,      0.00,    53.537,    1.1243
  4700.00,      0.00,    53.472,    1.1229
  4704.00,      0.00,     56.30,    1.1823
  4708.00,      0.00,    47.609,    0.9998
  4720.00,      0.00,    53.233,    1.1179
  4722.00,      0.00,    58.976,    1.2385
  4726.00,      0.00,    64.687,    1.3584
  4729.00,      0.00,     71.14,    1.4939
  4743.00,      0.00,    84.669,     1.778
  4749.00,      0.00,    84.592,    1.7764
  4754.00,      0.00,    83.817,    1.7602
  4758.00,      0.00,    84.484,    1.7742
  4763.00,      0.00,    82.988,    1.7427
  4769.00,      0.00,    80.029,    1.6806
  4777.00,      0.00,     78.49,    1.6483
  4784.00,      0.00,    74.091,    1.5559
  4788.00,      0.00,    74.757,    1.5699
  4793.00,      0.00,    73.261,    1.5385
  4801.00,      0.00,    70.281,    1.4759
  4811.00,      0.00,    67.268,    1.4126
  4820.00,      0.00,    64.997,    1.3649
  4830.00,      0.00,    64.889,    1.3627
  4839.00,      0.00,    62.618,     1.315
  4845.00,      0.00,     60.38,     1.268
  4850.00,      0.00,    61.035,    1.2817
  4856.00,      0.00,    61.691,    1.2955
  4859.00,      0.00,    63.089,    1.3249
  4864.00,      0.00,    64.475,     1.354
  4865.00,      0.00,    73.833,    1.5505
  4866.00,      0.00,    67.336,    1.4141
  4868.00,      0.00,    83.889,    1.7617
  4869.00,      0.00,    90.364,    1.8976
  4873.00,      0.00,    49.234,    1.0339
  4874.00,      0.00,    44.888,    0.9426
  4879.00,      0.00,    46.996,    0.9869
  4886.00,      0.00,    59.891,    1.2577
  4890.00,      0.00,    61.278,    1.2868
  4891.00,      0.00,    56.222,    1.1807
  4897.00,      0.00,    61.911,    1.3001
  4899.00,      0.00,    66.934,    1.4056
  4903.00,      0.00,    58.243,    1.2231
  4905.00,      0.00,    63.266,    1.3286
  4911.00,      0.00,    64.631,    1.3573
  5028.00,      0.00,    61.787,    1.2975
  5031.00,      0.00,     57.42,    1.2058
  5033.00,      0.00,    62.442,    1.3113
  5039.00,      0.00,    60.936,    1.2797
  5040.00,      0.00,    63.076,    1.3246
  5045.00,      0.00,    71.669,     1.505
  5047.00,      0.00,    96.149,    2.0191
  5052.00,      0.00,   85.2855,     4.734
  5053.00,      0.00,   73.7385,    3.7615
  5056.00,      0.00,    66.494,    1.3964
  5060.00,      0.00,    62.848,    1.3198
  5065.00,      0.00,    62.783,    1.3184
  5071.00,      0.00,    61.986,    1.3017
  5072.00,      0.00,    64.858,     1.362
  5077.00,      0.00,    65.524,     1.376
  5080.00,      0.00,    68.374,    1.4359
  5085.00,      0.00,     69.75,    1.4647
  5199.00,      0.00,     58.36,    1.2256
  5206.00,      0.00,     52.51,    1.1027
  5213.00,      0.00,     55.41,    1.1636
  5220.00,      0.00,     54.81,     1.151
  5226.00,      0.00,     56.11,    1.1783
  5232.00,      0.00,     52.08,    1.0937
  5238.00,      0.00,     53.31,    1.1195
  5246.00,      0.00,     56.21,    1.1804
  5253.00,      0.00,     53.86,    1.1311
  5258.00,      0.00,     56.91,    1.1951
  5264.00,      0.00,     58.21,    1.2224
  5267.00,      0.00,     54.41,    1.1426
  5272.00,      0.00,     59.29,    1.2451
  5275.00,      0.00,     65.99,    1.3858
  5280.00,      0.00,     70.87,    1.4883
  5285.00,      0.00,     77.50,    1.6275
  5288.00,      0.00,     87.70,    1.8417
  5291.00,      0.00,    105.06,    2.2063
  5294.00,      0.00,    131.10,    2.7531
  5297.00,      0.00,    223.81,      4.70
  5299.00,      0.00,    244.67,    5.1381
  5302.00,      0.00,    114.66,    2.4079
  5304.00,      0.00,     47.83,    1.0044
  5305.00,      0.00,     31.93,    0.6705
  5309.00,      0.00,     24.55,    0.5156
  5315.00,      0.00,     29.35,    0.6163
  5322.00,      0.00,     32.25,    0.6773
  5328.00,      0.00,     38.81,     0.815
  5335.00,      0.00,     41.71,    0.8759
  5341.00,      0.00,     44.68,    0.9383
  5347.00,      0.00,     49.49,    1.0393
  5352.00,      0.00,     50.79,    1.0666
  5357.00,      0.00,     53.91,    1.1321
  5360.00,      0.00,     60.62,     1.273
  5364.00,      0.00,     65.57,     1.377
  5366.00,      0.00,     75.93,    1.5945
  5368.00,      0.00,     86.28,    1.8119
  5369.00,      0.00,     96.71,    2.0309
  5371.00,      0.00,    112.32,    2.3587
  5373.00,      0.00,    144.63,   14.6562
  5374.00,      0.00,    212.04,    4.4528
  5376.00,      0.00,    336.42,    7.0648
  5378.00,      0.00,    418.71,    8.7929
  5380.00,      0.00,    490.49,   10.3003
  5381.00,      0.00,    681.56,   14.3128
  5383.00,      0.00,  665.6501,   13.9787
  5384.00,      0.00,    562.05,   11.8031
  5385.00,      0.00,    418.11,    8.7803
  5387.00,      0.00,    260.09,   37.7153
  5388.00,      0.00,    203.91,    4.2821
  5389.00,      0.00,   133.615,   18.9326
  5392.00,      0.00,    100.09,    2.1019
  5393.00,      0.00,     87.68,    1.8413
  5396.00,      0.00,     82.20,    1.7262
  5398.00,      0.00,     73.23,    1.5378
  5401.00,      0.00,     78.25,    1.6432
  5405.00,      0.00,     74.45,    1.5635
  5409.00,      0.00,     68.82,    1.4452
  5411.00,      0.00,     58.09,    1.2199
  5413.00,      0.00,     42.19,     0.886
  5415.00,      0.00,     52.54,    1.1033
  5417.00,      0.00,     43.56,    0.9148
  5421.00,      0.00,     45.01,    0.9452
  5426.00,      0.00,     46.39,    0.9742
  5431.00,      0.00,     44.19,     0.928
  5437.00,      0.00,     45.41,    0.9536
  5442.00,      0.00,     43.29,    0.9091
  5446.00,      0.00,     42.91,    0.9011
  5451.00,      0.00,     42.46,    0.8917
  5457.00,      0.00,     42.01,    0.8822
  5460.00,      0.00,     43.47,    0.9129
  5463.00,      0.00,     46.74,    0.9815
  5468.00,      0.00,     42.79,    0.8986
  5473.00,      0.00,     49.42,    1.0378
  5477.00,      0.00,     50.87,    1.0683
  5481.00,      0.00,     54.00,     1.134
  5485.00,      0.00,     60.70,    1.2747
  5489.00,      0.00,     69.15,    1.4521
  5491.00,      0.00,    84.765,   10.7189
  5493.00,      0.00,     82.86,    1.7401
  5496.00,      0.00,     51.58,   13.0493
  5497.00,      0.00,     31.64,    0.6644
  5499.00,      0.00,     26.16,    0.5494
  5501.00,      0.00,     34.76,      0.73
  5506.00,      0.00,     39.64,    0.8324
  5510.00,      0.00,     42.84,    0.8996
  5513.00,      0.00,     46.04,    0.9668
  5517.00,      0.00,     47.50,    0.9975
  5521.00,      0.00,     47.20,    0.9912
  5526.00,      0.00,     50.25,    1.0553
  5530.00,      0.00,     49.95,     1.049
  5533.00,      0.00,     47.90,    1.0059
  5539.00,      0.00,     61.45,    1.2905
  5542.00,      0.00,     68.23,    1.4328
  5545.00,      0.00,     74.93,    1.5735
  5547.00,      0.00,     85.29,    1.7911
  5550.00,      0.00,    111.40,    2.3394
  5551.00,      0.00,    125.33,    2.6319
  5553.00,      0.00,    163.78,    3.4394
  5554.00,      0.00,    198.72,    4.1731
  5556.00,      0.00,    242.41,    5.0906
  5558.00,      0.00,    224.75,    4.7198
  5560.00,      0.00,    150.92,    3.1693
  5562.00,      0.00,   57.1667,    30.476
  5563.00,      0.00,     22.59,    0.4744
  5565.00,      0.00,     13.68,    0.2873
  5568.00,      0.00,      8.13,    0.1707
  5572.00,      0.00,     13.08,    0.2747
  5575.00,      0.00,     18.03,    0.3786
  5579.00,      0.00,     21.24,     0.446
  5584.00,      0.00,     26.11,    0.5483
  5587.00,      0.00,     27.56,    0.5788
  5591.00,      0.00,     30.77,    0.6462
  5594.00,      0.00,     32.29,    0.6781
  5597.00,      0.00,     35.49,    0.7453
  5603.00,      0.00,     35.04,    0.7358
  5607.00,      0.00,     36.42,    0.7648
  5612.00,      0.00,     36.05,    0.7571
  5618.00,      0.00,     33.77,    0.7092
  5623.00,      0.00,     36.82,    0.7732
  5629.00,      0.00,     36.37,    0.7638
  5633.00,      0.00,     36.00,     0.756
  5637.00,      0.00,     37.45,    0.7864
  5642.00,      0.00,     35.25,    0.7403
  5648.00,      0.00,     34.72,    0.7291
  5652.00,      0.00,     34.42,    0.7228
  5656.00,      0.00,     32.37,    0.6798
  5659.00,      0.00,     30.32,    0.6367
  5663.00,      0.00,     28.27,    0.5937
  5666.00,      0.00,     22.72,    0.4771
  5670.00,      0.00,     17.16,    0.3604
  5673.00,      0.00,     13.36,    0.2806
  5678.00,      0.00,     14.74,    0.3095
  5680.00,      0.00,     23.34,    0.4901
  5681.00,      0.00,     32.02,    0.6724
  5683.00,      0.00,     44.13,    0.9267
  5685.00,      0.00,     57.98,    1.2176
  5687.00,      0.00,     68.34,    1.4351
  5691.00,      0.00,     73.29,    1.5391
  5694.00,      0.00,     71.24,     1.496
  5698.00,      0.00,     70.94,    1.4897
  5699.00,      0.00,     86.62,     1.819
  5703.00,      0.00,    137.17,    2.8806
  5705.00,      0.00,    108.93,    2.2875
  5707.00,      0.00,     89.45,    1.8784
  5711.00,      0.00,    53.145,   12.7708
  5715.00,      0.00,     29.17,    0.6126
  5719.00,      0.00,     28.80,    0.6048
  5721.00,      0.00,     33.90,    0.7119
  5725.00,      0.00,     37.10,    0.7791
  5729.00,      0.00,     38.48,    0.8081
  5733.00,      0.00,     41.68,    0.8753
  5737.00,      0.00,     44.81,     0.941
  5741.00,      0.00,     41.00,     0.861
  5745.00,      0.00,     38.88,    0.8165
  5748.00,      0.00,     28.15,    0.5912
  5751.00,      0.00,     40.18,    0.8438
  5752.00,      0.00,    119.88,   37.4153
  5754.00,      0.00,   131.985,    9.0661
  5756.00,      0.00,    106.41,    2.2346
  5757.00,      0.00,     92.25,    1.9372
  5759.00,      0.00,     86.85,    1.8238
  5760.00,      0.00,     78.02,    1.6384
  5763.00,      0.00,     68.97,    1.4484
  5767.00,      0.00,     54.59,    1.1464
  5770.00,      0.00,     59.61,    1.2518
  5773.00,      0.00,     55.89,    1.1737
  5777.00,      0.00,     55.51,    1.1657
  5781.00,      0.00,     58.72,    1.2331
  5782.00,      0.00,    93.695,    27.028
  5784.00,      0.00,    184.70,    3.8787
  5787.00,      0.00,    209.06,    4.3903
  5789.00,      0.00,    130.81,   53.8072
  5792.00,      0.00,     73.57,     1.545
  5793.00,      0.00,     64.74,    1.3595
  5794.00,      0.00,     59.34,    1.2461
  5796.00,      0.00,     34.60,    0.7266
  5797.00,      0.00,     50.36,    1.0576
  5799.00,      0.00,     15.12,    0.3175
  5801.00,      0.00,     34.23,    0.7188
  5802.00,      0.00,     23.57,     0.495
  5803.00,      0.00,     88.43,   20.7126
  5806.00,      0.00,    126.72,    2.6611
  5809.00,      0.00,     86.15,    1.8092
  5811.00,      0.00,     52.66,    1.1059
  5812.00,      0.00,     38.58,    0.8102
  5814.00,      0.00,     20.85,    0.4379
  5818.00,      0.00,     20.47,    0.4299
  5821.00,      0.00,     30.75,    0.6457
  5827.00,      0.00,     33.81,      0.71
  5832.00,      0.00,     33.36,    0.7006
  5838.00,      0.00,     36.41,    0.7646
  5843.00,      0.00,     37.71,    0.7919
  5847.00,      0.00,     35.58,    0.7472
  5853.00,      0.00,     36.88,    0.7745
  5857.00,      0.00,     38.33,    0.8049
  5862.00,      0.00,     41.39,    0.8692
  5867.00,      0.00,     39.19,     0.823
  5871.00,      0.00,     44.14,    0.9269
  5875.00,      0.00,     42.09,    0.8839
  5879.00,      0.00,     41.71,    0.8759
  5883.00,      0.00,     44.91,    0.9431
  5887.00,      0.00,     46.29,    0.9721
  5892.00,      0.00,     42.34,    0.8891
  5898.00,      0.00,     45.39,    0.9532
  5901.00,      0.00,     50.42,    1.0588
  5906.00,      0.00,     49.97,    1.0494
  5911.00,      0.00,     49.52,    1.0399
  5916.00,      0.00,     50.89,    1.0687
  5921.00,      0.00,     54.02,    1.1344
  5925.00,      0.00,     53.65,    1.1267
  5930.00,      0.00,     56.77,    1.1922
  5935.00,      0.00,     59.82,    1.2562
  5940.00,      0.00,     64.70,    1.3587
  5944.00,      0.00,     69.58,    1.4612
  5947.00,      0.00,     99.19,     2.083
  5951.00,      0.00,    118.15,    2.4811
  5953.00,      0.00,    128.51,    2.6987
EndData:
