Comment:    Automatically converted from EXFOR
            by the IAEA-NDS EXFOR Web-Retrieval System
            program version-2015/02/20, by V.Zerkin.
            "Backscattering cross section of 5.5 to 8 MeV alpha
             particles from carbon, oxygen and silicon."
            H.Yonezawa,  K.Shikano,  T.Shigematsu
            EXFOR: F0117004    Created: 2003-09-25  Updated: 2014-11-13
            X4Reaction:14-SI-28(A,EL)14-SI-28,,DA; X4Points:281
            LevelEnergy: 0.00

Version:      R33
X4Number:     F0117004
Source:       H.Yonezawa+(1994), Jour. Nucl. Instrum. Methods in Physics Res., Sect.B, Vol.88, p.207
Reaction:     28Si(a,a0)28Si
Distribution: Energy
Sigfactors:   1.00, 0.00
Enfactors:    1.00, 0.00, 0.00, 0.00
Units:        mb
Composition:
Masses:       4.0, 28.0, 4.0, 28.0
Zeds:         2, 14, 2, 14
Qvalue:       0.0, 0.00, 0.00, 0.00, 0.00
Theta:        169
Data:
 5518.00,     0.00,    56.65,     0.00
 5527.00,     0.00,   59.774,     0.00
 5538.90,     0.00,   61.314,     0.00
 5547.80,     0.00,   51.839,     0.00
 5559.70,     0.00,   43.931,     0.00
 5571.50,     0.00,   39.172,     0.00
 5586.50,     0.00,   37.554,     0.00
 5598.40,     0.00,   35.944,     0.00
 5613.30,     0.00,   37.476,     0.00
 5631.20,     0.00,   37.424,     0.00
 5646.20,     0.00,   40.531,     0.00
 5661.20,     0.00,   45.212,     0.00
 5673.10,     0.00,   45.178,     0.00
 5685.10,     0.00,   48.293,     0.00
 5697.00,     0.00,   49.833,     0.00
 5712.00,     0.00,   51.365,     0.00
 5723.90,     0.00,    51.33,     0.00
 5735.90,     0.00,   54.445,     0.00
 5744.90,     0.00,   60.719,     0.00
 5750.90,     0.00,   65.426,     0.00
 5759.80,     0.00,   55.951,     0.00
 5771.70,     0.00,   49.617,     0.00
 5780.50,     0.00,   43.292,     0.00
 5792.40,     0.00,   40.108,     0.00
 5804.40,     0.00,   36.924,     0.00
 5810.30,     0.00,   30.607,     0.00
 5825.20,     0.00,   32.139,     0.00
 5840.10,     0.00,   30.521,     0.00
 5852.00,     0.00,   28.912,     0.00
 5867.00,     0.00,   30.444,     0.00
 5876.00,     0.00,   35.142,     0.00
 5893.90,     0.00,   39.815,     0.00
 5905.90,     0.00,   44.505,     0.00
 5912.00,     0.00,   53.936,     0.00
 5921.00,     0.00,   61.784,     0.00
 5933.10,     0.00,   71.199,     0.00
 5948.00,     0.00,    72.73,     0.00
 5968.90,     0.00,    72.67,     0.00
 5974.80,     0.00,   64.779,     0.00
 5986.70,     0.00,   61.594,     0.00
 5995.60,     0.00,   56.844,     0.00
 5998.50,     0.00,   47.387,     0.00
 6004.40,     0.00,   39.495,     0.00
 6010.30,     0.00,   34.754,     0.00
 6022.30,     0.00,   41.019,     0.00
 6028.30,     0.00,    47.30,     0.00
 6034.40,     0.00,   55.157,     0.00
 6040.40,     0.00,   61.439,     0.00
 6043.50,     0.00,    67.73,     0.00
 6049.60,     0.00,   78.736,     0.00
 6052.60,     0.00,   88.176,     0.00
 6061.70,     0.00,    94.45,     0.00
 6067.70,     0.00,   99.157,     0.00
 6073.60,     0.00,   91.266,     0.00
 6085.40,     0.00,   80.207,     0.00
 6091.30,     0.00,   72.316,     0.00
 6097.20,     0.00,    62.85,     0.00
 6109.00,     0.00,   53.367,     0.00
 6120.90,     0.00,   47.033,     0.00
 6132.70,     0.00,   39.124,     0.00
 6144.60,     0.00,    35.94,     0.00
 6153.50,     0.00,   29.615,     0.00
 6165.40,     0.00,   23.282,     0.00
 6183.30,     0.00,   18.505,     0.00
 6201.20,     0.00,   20.028,     0.00
 6213.20,     0.00,   23.144,     0.00
 6225.20,     0.00,   27.833,     0.00
 6237.10,     0.00,   32.523,     0.00
 6258.00,     0.00,   32.463,     0.00
 6272.90,     0.00,   30.845,     0.00
 6287.90,     0.00,   30.802,     0.00
 6305.80,     0.00,   29.175,     0.00
 6320.70,     0.00,   32.282,     0.00
 6335.60,     0.00,   32.239,     0.00
 6350.50,     0.00,   27.471,     0.00
 6368.40,     0.00,   27.419,     0.00
 6383.30,     0.00,   24.227,     0.00
 6395.20,     0.00,   21.042,     0.00
 6407.20,     0.00,   19.433,     0.00
 6422.10,     0.00,    19.39,     0.00
 6437.10,     0.00,   24.071,     0.00
 6452.00,     0.00,   25.603,     0.00
 6469.90,     0.00,   27.126,     0.00
 6484.80,     0.00,   27.083,     0.00
 6496.80,     0.00,   23.899,     0.00
 6508.80,     0.00,   30.163,     0.00
 6520.80,     0.00,   41.153,     0.00
 6529.70,     0.00,   31.678,     0.00
 6535.60,     0.00,   25.361,     0.00
 6550.40,     0.00,   19.019,     0.00
 6568.40,     0.00,   22.117,     0.00
 6577.40,     0.00,    28.39,     0.00
 6580.50,     0.00,   36.256,     0.00
 6586.60,     0.00,   50.412,     0.00
 6595.70,     0.00,   69.283,     0.00
 6601.90,     0.00,   89.738,     0.00
 6605.10,     0.00,   108.63,     0.00
 6611.10,     0.00,   114.91,     0.00
 6617.00,     0.00,   103.87,     0.00
 6619.70,     0.00,   75.513,     0.00
 6622.40,     0.00,   47.158,     0.00
 6628.20,     0.00,   29.818,     0.00
 6634.10,     0.00,   23.502,     0.00
 6646.00,     0.00,   25.042,     0.00
 6655.00,     0.00,   29.741,     0.00
 6664.00,     0.00,   36.014,     0.00
 6676.00,     0.00,   40.704,     0.00
 6688.00,     0.00,   45.394,     0.00
 6697.10,     0.00,   53.242,     0.00
 6703.10,     0.00,   57.949,     0.00
 6712.10,     0.00,   67.372,     0.00
 6718.20,     0.00,   75.229,     0.00
 6721.20,     0.00,   83.094,     0.00
 6724.30,     0.00,   89.385,     0.00
 6730.40,     0.00,   100.39,     0.00
 6736.40,     0.00,   108.25,     0.00
 6745.50,     0.00,   117.67,     0.00
 6751.60,     0.00,   127.10,     0.00
 6757.60,     0.00,   136.53,     0.00
 6763.70,     0.00,   144.39,     0.00
 6766.70,     0.00,   152.26,     0.00
 6769.80,     0.00,   158.55,     0.00
 6778.80,     0.00,   166.39,     0.00
 6787.70,     0.00,   161.64,     0.00
 6793.60,     0.00,   149.03,     0.00
 6796.40,     0.00,   136.42,     0.00
 6808.30,     0.00,   126.94,     0.00
 6814.40,     0.00,   141.09,     0.00
 6820.50,     0.00,   155.25,     0.00
 6826.60,     0.00,   167.83,     0.00
 6829.70,     0.00,   174.12,     0.00
 6835.50,     0.00,   166.23,     0.00
 6841.40,     0.00,   158.34,     0.00
 6844.20,     0.00,   139.43,     0.00
 6852.90,     0.00,   117.36,     0.00
 6858.70,     0.00,   98.445,     0.00
 6861.60,     0.00,   84.263,     0.00
 6867.40,     0.00,   76.372,     0.00
 6873.30,     0.00,   68.481,     0.00
 6876.20,     0.00,   59.023,     0.00
 6882.10,     0.00,   54.282,     0.00
 6888.00,     0.00,   47.965,     0.00
 6893.90,     0.00,   40.074,     0.00
 6908.80,     0.00,   36.881,     0.00
 6917.70,     0.00,   30.556,     0.00
 6926.60,     0.00,   24.231,     0.00
 6932.50,     0.00,   19.489,     0.00
 6938.60,     0.00,   25.771,     0.00
 6944.60,     0.00,   32.053,     0.00
 6953.60,     0.00,   36.752,     0.00
 6965.60,     0.00,   41.442,     0.00
 6980.60,     0.00,   46.123,     0.00
 6992.60,     0.00,   50.813,     0.00
 7001.60,     0.00,   57.086,     0.00
 7016.50,     0.00,   58.618,     0.00
 7022.40,     0.00,   52.302,     0.00
 7034.30,     0.00,   44.393,     0.00
 7049.20,     0.00,    41.20,     0.00
 7064.00,     0.00,   34.858,     0.00
 7081.90,     0.00,   31.657,     0.00
 7093.80,     0.00,   26.898,     0.00
 7108.70,     0.00,   28.429,     0.00
 7123.70,     0.00,   29.961,     0.00
 7135.60,     0.00,   28.352,     0.00
 7147.50,     0.00,   28.317,     0.00
 7156.50,     0.00,   33.016,     0.00
 7162.60,     0.00,   39.298,     0.00
 7165.60,     0.00,   47.163,     0.00
 7171.70,     0.00,   56.595,     0.00
 7183.70,     0.00,   61.284,     0.00
 7195.60,     0.00,   56.526,     0.00
 7204.60,     0.00,   62.799,     0.00
 7210.70,     0.00,   69.081,     0.00
 7222.60,     0.00,   67.471,     0.00
 7225.50,     0.00,   58.014,     0.00
 7231.30,     0.00,   48.548,     0.00
 7237.20,     0.00,   40.657,     0.00
 7249.10,     0.00,   35.898,     0.00
 7258.00,     0.00,   31.147,     0.00
 7261.00,     0.00,   26.414,     0.00
 7270.00,     0.00,   31.113,     0.00
 7273.10,     0.00,   42.128,     0.00
 7279.10,     0.00,    48.41,     0.00
 7288.10,     0.00,   56.258,     0.00
 7303.10,     0.00,    57.79,     0.00
 7318.10,     0.00,    71.92,     0.00
 7324.20,     0.00,   84.501,     0.00
 7333.30,     0.00,   92.349,     0.00
 7339.10,     0.00,   75.009,     0.00
 7344.90,     0.00,   62.393,     0.00
 7347.70,     0.00,   48.212,     0.00
 7353.60,     0.00,   37.171,     0.00
 7356.50,     0.00,   27.713,     0.00
 7362.40,     0.00,   19.822,     0.00
 7371.30,     0.00,   13.497,     0.00
 7383.20,     0.00,   11.887,     0.00
 7386.20,     0.00,   18.178,     0.00
 7395.30,     0.00,   26.026,     0.00
 7404.30,     0.00,    32.30,     0.00
 7419.30,     0.00,   38.556,     0.00
 7428.30,     0.00,   46.404,     0.00
 7437.30,     0.00,   52.677,     0.00
 7440.40,     0.00,   58.968,     0.00
 7449.40,     0.00,   68.391,     0.00
 7455.60,     0.00,   88.846,     0.00
 7458.80,     0.00,   104.59,     0.00
 7464.80,     0.00,   112.44,     0.00
 7476.80,     0.00,   115.56,     0.00
 7491.80,     0.00,   120.24,     0.00
 7503.80,     0.00,   128.08,     0.00
 7518.80,     0.00,   132.76,     0.00
 7530.80,     0.00,   139.02,     0.00
 7539.80,     0.00,   145.30,     0.00
 7551.80,     0.00,   151.56,     0.00
 7560.80,     0.00,   157.84,     0.00
 7566.90,     0.00,   164.12,     0.00
 7578.70,     0.00,   153.06,     0.00
 7584.50,     0.00,   140.44,     0.00
 7590.30,     0.00,   123.10,     0.00
 7596.10,     0.00,   107.34,     0.00
 7602.00,     0.00,   97.872,     0.00
 7607.90,     0.00,   89.981,     0.00
 7613.90,     0.00,   97.837,     0.00
 7620.00,     0.00,   108.84,     0.00
 7623.10,     0.00,   123.01,     0.00
 7629.20,     0.00,   134.01,     0.00
 7635.30,     0.00,   146.60,     0.00
 7638.40,     0.00,   154.46,     0.00
 7644.50,     0.00,   162.32,     0.00
 7650.50,     0.00,   168.60,     0.00
 7662.40,     0.00,   166.99,     0.00
 7671.30,     0.00,   159.09,     0.00
 7674.20,     0.00,   152.78,     0.00
 7680.10,     0.00,   148.04,     0.00
 7683.20,     0.00,   157.48,     0.00
 7689.30,     0.00,   171.64,     0.00
 7695.50,     0.00,   187.37,     0.00
 7701.60,     0.00,   203.10,     0.00
 7710.30,     0.00,   181.03,     0.00
 7715.80,     0.00,   136.91,     0.00
 7721.50,     0.00,   106.98,     0.00
 7724.20,     0.00,    81.77,     0.00
 7726.90,     0.00,    54.99,     0.00
 7735.70,     0.00,   39.216,     0.00
 7738.60,     0.00,   32.908,     0.00
 7750.60,     0.00,   36.023,     0.00
 7756.70,     0.00,    43.88,     0.00
 7762.70,     0.00,   53.311,     0.00
 7768.90,     0.00,   69.042,     0.00
 7778.00,     0.00,   87.914,     0.00
 7781.10,     0.00,   102.08,     0.00
 7787.20,     0.00,   113.09,     0.00
 7793.30,     0.00,   125.67,     0.00
 7799.40,     0.00,   139.82,     0.00
 7805.80,     0.00,   177.60,     0.00
 7809.30,     0.00,   224.84,     0.00
 7815.80,     0.00,   279.94,     0.00
 7819.30,     0.00,   330.32,     0.00
 7828.70,     0.00,   372.82,     0.00
 7831.80,     0.00,   385.41,     0.00
 7837.70,     0.00,   374.36,     0.00
 7840.20,     0.00,   330.26,     0.00
 7845.60,     0.00,   271.98,     0.00
 7851.00,     0.00,   215.27,     0.00
 7856.50,     0.00,   172.73,     0.00
 7862.10,     0.00,   139.64,     0.00
 7867.80,     0.00,   109.70,     0.00
 7876.40,     0.00,    78.18,     0.00
 7879.30,     0.00,   67.148,     0.00
 7882.10,     0.00,   54.541,     0.00
 7894.20,     0.00,   70.255,     0.00
 7897.50,     0.00,   97.018,     0.00
 7903.70,     0.00,   114.32,     0.00
 7909.70,     0.00,   122.18,     0.00
 7924.40,     0.00,   101.66,     0.00
 7933.50,     0.00,   112.66,     0.00
 7945.30,     0.00,    96.88,     0.00
 7948.00,     0.00,   73.249,     0.00
 7953.70,     0.00,    46.46,     0.00
 7956.50,     0.00,   30.703,     0.00
 7962.40,     0.00,   21.237,     0.00
EndData:

