Comment:    Automatically converted from EXFOR
            by the IAEA-NDS EXFOR Web-Retrieval System
            program version-2015/03/13, by V.Zerkin.
            "Measurement of differential cross sections in a+9Be
             elastic scattering."
            I.Lombardo,  L.Campajola,  E.Rosato,  G.Spadaccini, 
            M.Vigilante
            EXFOR: O2137003    Created: 2013-07-06  Updated: 2015-06-04
            X4Reaction:4-BE-9(A,EL)4-BE-9,,DA; X4Points:411
            LevelEnergy: 0.00

Version:      R33
X4Number:     O2137003
Source:       I.Lombardo+(2013), Jour. Nucl. Instrum. Methods in Physics Res., Sect.B, Vol.302, p.19
Reaction:     9Be(a,a0)9Be
Distribution: Energy
Sigfactors:   1.00, 0.00
Enfactors:    1.00, 0.00, 0.00, 0.00
Units:        mb
Composition:
Masses:       4.0, 9.0, 4.0, 9.0
Zeds:         2, 4, 2, 4
Qvalue:       0.0, 0.00, 0.00, 0.00, 0.00
Theta:        160
Data:
 3480.00,     0.00,   8.3382,   0.6591
 3530.00,     0.00,   8.7666,   0.6921
 3590.00,     0.00,   9.5905,    0.758
 3650.00,     0.00,    10.81,   0.8569
 3710.00,     0.00,  11.6668,   0.9228
 3780.00,     0.00,  12.4249,   0.9887
 3840.00,     0.00,   13.051,   1.0546
 3900.00,     0.00,  13.2158,   1.0546
 3960.00,     0.00,  15.5558,   1.2524
 4020.00,     0.00,   19.247,    1.549
 4080.00,     0.00,  18.8845,    1.516
 4140.00,     0.00,  17.7639,   1.4172
 4200.00,     0.00,  18.1264,   1.4501
 4260.00,     0.00,  18.6867,   1.4831
 4320.00,     0.00,   19.247,    1.549
 4380.00,     0.00,  20.1698,   1.6149
 4440.00,     0.00,  20.6641,   1.6479
 4500.00,     0.00,  20.3346,   1.6149
 4560.00,     0.00,  20.4334,   1.6479
 4620.00,     0.00,  20.4005,   1.6149
 4690.00,     0.00,  19.7743,   1.5819
 4750.00,     0.00,  19.5106,    1.549
 4810.00,     0.00,  17.4673,   1.3842
 4870.00,     0.00,  17.2696,   1.3842
 4940.00,     0.00,  19.1481,    1.549
 4990.00,     0.00,   34.638,   2.7684
 5050.00,     0.00,   57.708,    4.614
 5100.00,     0.00,  48.0845,    3.856
 5170.00,     0.00,  30.8479,   2.4718
 5230.00,     0.00,  20.9937,   1.6808
 5290.00,     0.00,   16.182,   1.2853
 5350.00,     0.00,  14.1057,   1.1205
 5410.00,     0.00,  12.6885,   1.0217
 5470.00,     0.00,  13.6443,   1.0876
 5530.00,     0.00,  15.8524,   1.2524
 5590.00,     0.00,  20.6312,   1.6479
 5650.00,     0.00,  27.3545,   2.1752
 5710.00,     0.00,  32.8583,   2.6366
 5770.00,     0.00,   39.219,   3.1309
 5840.00,     0.00,  45.9423,   3.6912
 5900.00,     0.00,  48.5789,   3.8889
 5960.00,     0.00,  48.0186,    3.856
 6020.00,     0.00,  48.0186,    3.856
 6080.00,     0.00,  47.0299,   3.7571
 6140.00,     0.00,  44.8218,   3.5923
 6200.00,     0.00,  43.1739,   3.4605
 6260.00,     0.00,  41.4931,   3.3287
 6320.00,     0.00,  39.6145,   3.1639
 6380.00,     0.00,  37.5382,   2.9991
 6440.00,     0.00,  34.8687,   2.8014
 6500.00,     0.00,  29.9581,   2.4059
 6560.00,     0.00,  28.8375,    2.307
 6620.00,     0.00,  26.6294,   2.1422
 6680.00,     0.00,  24.3883,   1.9445
 6740.00,     0.00,   23.894,   1.9115
 6800.00,     0.00,  22.9052,   1.8456
 6860.00,     0.00,   23.103,   1.8456
 6920.00,     0.00,  23.4655,   1.8786
 6980.00,     0.00,  24.4872,   1.9445
 7040.00,     0.00,  24.3554,   1.9445
 7100.00,     0.00,  24.4213,   1.9445
 7160.00,     0.00,  22.4438,   1.7797
 7220.00,     0.00,  21.9824,   1.7467
 7280.00,     0.00,  22.4768,   1.8126
 7340.00,     0.00,  21.3892,   1.7138
 7400.00,     0.00,  20.5982,   1.6479
 7460.00,     0.00,  19.1152,    1.516
 7520.00,     0.00,  18.3901,   1.4831
 7580.00,     0.00,  16.6763,   1.3183
 7650.00,     0.00,  15.7206,   1.2524
 7710.00,     0.00,  14.5012,   1.1535
 7770.00,     0.00,  11.4691,   0.9228
 7830.00,     0.00,   8.7337,   0.6921
 7890.00,     0.00,   6.7562,   0.5273
 7950.00,     0.00,   6.5255,   0.5273
 8010.00,     0.00,   7.4813,   0.5932
 8070.00,     0.00,   8.2063,   0.6591
 8130.00,     0.00,    8.437,   0.6591
 8190.00,     0.00,   8.1075,   0.6591
 8250.00,     0.00,   8.2723,   0.6591
 8310.00,     0.00,    8.437,   0.6591
 8370.00,     0.00,   8.9314,   0.7251
 8430.00,     0.00,   9.1951,   0.7251
 8490.00,     0.00,   9.2939,    0.758
 8550.00,     0.00,   9.8872,    0.791
 8610.00,     0.00,   9.6235,    0.758
 8670.00,     0.00,  10.4474,   0.8239
 8730.00,     0.00,  11.0736,   0.8898
 8790.00,     0.00,  11.3702,   0.9228
 8850.00,     0.00,  11.1395,   0.8898
 8910.00,     0.00,  11.4691,   0.9228
 8970.00,     0.00,  10.7111,   0.8569
 9030.00,     0.00,    10.81,   0.8569
 9090.00,     0.00,  10.7111,   0.8569
 9150.00,     0.00,  10.6781,   0.8569
 9210.00,     0.00,   11.568,   0.9228
 9270.00,     0.00,  11.6668,   0.9228
 9330.00,     0.00,  12.2271,   0.9887
 9390.00,     0.00,  13.7431,   1.0876
 9450.00,     0.00,  16.7093,   1.3512
 9510.00,     0.00,  18.8845,    1.516
 9570.00,     0.00,  19.0822,    1.516
 9630.00,     0.00,   21.521,   1.7138
 9690.00,     0.00,  22.6416,   1.8126
 9750.00,     0.00,  23.9928,   1.9115
 9810.00,     0.00,  23.5644,   1.8786
 9870.00,     0.00,  24.9815,   2.0104
 9940.00,     0.00,  25.2452,   2.0104
EndData:

