Comment:    Automatically converted from EXFOR on 2020-04-07,19:08:32
            by the IAEA-NDS EXFOR Web-Retrieval System
            program ver-2019-12-10 (V.Zerkin).
            X4Title: "Elastic scattering of alpha particles by 9Be and highly
                      excited states of 13C"
            X4Author: J.D.Goss, S.L.Blatt, D.R.Parsignault, C.D.Porterfield, 
            F.L.Riffle
            EXFOR: F0328002    Created: 1986-07-02  Updated: 2016-09-02
            X4Reaction:4-BE-9(A,EL)4-BE-9,,DA; X4Points:704
            Converted from C.M. to Lab.: Sigma, Theta
            SigmaLab=SigmaCM/1.1184855
            ThetaLab=90.1 ThetaCM:116.5 [115.9, 116.7]
            ENSDF:LevelEnergy=0.00
            Theta groupping interval=3.0 deg.
            Systematic uncertainty: ErrSys=5.0%
            AME2016: M1=4.002603254 M2=9.012183066 M3=4.002603254 M4=9.012183066

Version:      R33
X4Number:     F0328002 20160902
Source:       J.D.Goss+(1973), Jour. Physical Review, Part C, Nuclear Physics, Vol.7, p.1837
Reaction:     9Be(a,a0)9Be
Distribution: Energy
Sigfactors:   1.00, 0.05
Enfactors:    1.00, 0.00, 0.00, 0.00
Units:        mb
Composition:
Masses:       4.0, 9.0, 4.0, 9.0
Zeds:         2, 4, 2, 4
Qvalue:       0.0, 0.00, 0.00, 0.00, 0.00
Theta:        90.1
Data:
  1698.00,      5.00,   73.8499,      0.00
  1752.00,      5.00,   68.3067,      0.00
  1806.00,      5.00,   63.2999,      0.00
  1846.00,      5.00,   51.4982,      0.00
  1900.00,      5.00,    45.955,      0.00
  1953.00,      5.00,   41.5741,      0.00
  2000.00,      5.00,   42.8258,      0.00
  2054.00,      5.00,   42.8258,      0.00
  2101.00,      5.00,   44.7033,      0.00
  2148.00,      5.00,   41.5741,      0.00
  2202.00,      5.00,   39.7859,      0.00
  2255.00,      5.00,   40.9482,      0.00
  2296.00,      5.00,   37.2826,      0.00
  2350.00,      5.00,   34.1533,      0.00
  2403.00,      5.00,   32.9016,      0.00
  2450.00,      5.00,    35.405,      0.00
  2497.00,      5.00,   31.6499,      0.00
  2551.00,      5.00,   29.7724,      0.00
  2605.00,      5.00,   27.3584,      0.00
  2652.00,      5.00,   28.6101,      0.00
  2699.00,      5.00,   25.4809,      0.00
  2752.00,      5.00,   25.4809,      0.00
  2806.00,      5.00,   23.6033,      0.00
  2853.00,      5.00,   20.4741,      0.00
  2900.00,      5.00,     21.10,      0.00
  2947.00,      5.00,   19.8483,      0.00
  3007.00,      5.00,   19.2224,      0.00
  3054.00,      5.00,    18.686,      0.00
  3101.00,      5.00,   17.4343,      0.00
  3155.00,      5.00,    18.686,      0.00
  3202.00,      5.00,   16.1826,      0.00
  3256.00,      5.00,   14.9309,      0.00
  3303.00,      5.00,   15.5568,      0.00
  3350.00,      5.00,   16.1826,      0.00
  3397.00,      5.00,   14.3051,      0.00
  3451.00,      5.00,   18.0601,      0.00
  3504.00,      5.00,    18.686,      0.00
  3551.00,      5.00,   19.3118,      0.00
  3598.00,      5.00,   22.9775,      0.00
  3652.00,      5.00,   26.1067,      0.00
  3706.00,      5.00,   28.6101,      0.00
  3753.00,      5.00,   33.5275,      0.00
  3806.00,      5.00,   37.1484,    2.0116
  3853.00,      5.00,   42.2893,      0.00
  3860.00,      5.00,   39.6071,      0.00
  3900.00,      5.00,   46.2232,    0.9835
  3954.00,      5.00,   52.2135,    1.2517
  4001.00,      5.00,   55.2533,      0.00
  4008.00,      5.00,   53.4652,      0.00
  4055.00,      5.00,   50.2912,    0.6705
  4102.00,      5.00,   50.3359,      0.00
  4108.00,      5.00,   49.7101,      0.00
  4155.00,      5.00,    48.369,      0.00
  4156.00,      5.00,   50.9618,      0.00
  4203.00,      5.00,   49.7101,      0.00
  4209.00,      5.00,   49.7101,      0.00
  4256.00,      5.00,   46.8491,    0.9835
  4303.00,      5.00,   45.9103,    1.2964
  4350.00,      5.00,   42.9152,      0.00
  4363.00,      5.00,   42.7364,      0.00
  4404.00,      5.00,   42.9152,      0.00
  4410.00,      5.00,   42.7364,      0.00
  4451.00,      5.00,   42.1105,      0.00
  4458.00,      5.00,   42.2893,      0.00
  4504.00,      5.00,   42.1105,      0.00
  4505.00,      5.00,   44.7033,      0.00
  4551.00,      5.00,   40.8588,      0.00
  4552.00,      5.00,   42.9152,      0.00
  4605.00,      5.00,   43.7198,    0.9835
  4652.00,      5.00,   45.3292,      0.00
  4659.00,      5.00,    45.955,      0.00
  4706.00,      5.00,   44.9715,    0.9835
  4753.00,      5.00,    45.955,      0.00
  4760.00,      5.00,    45.955,      0.00
  4800.00,      5.00,   48.4584,      0.00
  4807.00,      5.00,   46.5808,      0.00
  4854.00,      5.00,   47.2067,    0.6258
  4901.00,      5.00,   52.2135,      0.00
  4907.00,      5.00,   50.9618,      0.00
  4948.00,      5.00,   60.8859,      0.00
  4954.00,      5.00,   57.3096,      0.00
  5001.00,      5.00,   73.4475,    1.7434
  5048.00,      5.00,    85.741,      0.00
  5061.00,      5.00,   86.9032,      0.00
  5095.00,      5.00,   69.5584,      0.00
  5102.00,      5.00,   68.5749,      0.00
  5149.00,      5.00,    56.505,      0.00
  5156.00,      5.00,   56.6838,      0.00
  5203.00,      5.00,   43.8092,    0.2682
  5250.00,      5.00,   36.2544,    0.2235
  5297.00,      5.00,   30.4877,      0.00
  5303.00,      5.00,   30.2194,      0.00
  5351.00,      5.00,    29.236,      0.00
  5357.00,      5.00,   28.9677,      0.00
  5398.00,      5.00,   24.5868,      0.00
  5404.00,      5.00,   26.7326,      0.00
EndData:
