Comment:    Automatically converted from EXFOR on 2020-04-07,19:03:13
            by the IAEA-NDS EXFOR Web-Retrieval System
            program ver-2019-12-10 (V.Zerkin).
            X4Title: "Quantification of beryllium in thin films using
                      proton backscattering"
            X4Author: J.A.Leavitt, L.C.Mcintyre Jr, R.S.Champlin, J.O.Stoner Jr, 
            Z.Lin, M.D.Ashbaugh, R.P.Cox, J.D.Frank
            EXFOR: D0591002    Created: 2009-12-02  Updated: 2010-01-28
            X4Reaction:4-BE-9(A,EL)4-BE-9,,DA,,RTH; X4Points:105
            ENSDF:LevelEnergy=0.00
            Systematic uncertainty: ErrSys=3.0%
            AME2016: M1=4.002603254 M2=9.012183066 M3=4.002603254 M4=9.012183066

Version:      R33
X4Number:     D0591002 20100128
Source:       J.A.Leavitt+(1994), Jour. Nucl. Instrum. Methods in Physics Res., Sect.B, Vol.85, p.37
Reaction:     9Be(a,a0)9Be
Distribution: Energy
Sigfactors:   1.00, 0.03
Enfactors:    1.00, 0.00, 0.00, 0.00
Units:        rr
Composition:
Masses:       4.0, 9.0, 4.0, 9.0
Zeds:         2, 4, 2, 4
Qvalue:       0.0, 0.00, 0.00, 0.00, 0.00
Theta:        170.5
Data:
   577.00,      2.00,     0.981,      0.00
   622.00,      2.00,     1.038,      0.00
   673.20,      2.00,     1.025,      0.00
   679.50,      2.00,      0.98,      0.00
   724.60,      2.00,     1.044,      0.00
   775.70,      2.00,     1.025,      0.00
   775.80,      2.00,     0.993,      0.00
   820.60,      2.00,     0.993,      0.00
   871.80,      2.00,     0.961,      0.00
   878.40,      2.00,     1.063,      0.00
   878.50,      2.00,     1.025,      0.00
   923.20,      2.00,     0.999,      0.00
   974.40,      2.00,     1.044,      0.00
   974.60,      2.00,     0.967,      0.00
  1025.70,      2.00,     1.005,      0.00
  1077.00,      2.00,     1.011,      0.00
  1121.90,      2.00,     0.998,      0.00
  1128.40,      2.00,     1.043,      0.00
  1179.60,      2.00,     1.037,      0.00
  1179.70,      2.00,     0.992,      0.00
  1224.40,      2.00,     1.049,      0.00
  1224.60,      2.00,     0.985,      0.00
  1275.70,      2.00,      1.03,      0.00
  1275.80,      2.00,     0.972,      0.00
  1327.00,      2.00,     0.998,      0.00
  1371.90,      2.00,     1.023,      0.00
  1378.20,      2.00,     0.953,      0.00
  1423.00,      2.00,     0.953,      0.00
  1474.30,      2.00,      0.94,      0.00
  1525.50,      2.00,     0.914,      0.00
  1583.10,      2.00,     0.882,      0.00
  1634.40,      2.00,     0.875,      0.00
  1678.90,      2.00,     0.734,      0.00
  1729.80,      2.00,     0.619,      0.00
  1780.60,      2.00,     0.407,      0.00
  1831.20,      2.00,     0.176,      0.00
  1876.20,      2.00,     0.227,      0.00
  1882.80,      2.00,     0.266,      0.00
  1928.80,      2.00,     0.701,      0.00
  1981.30,      2.00,     1.169,     0.013
  1981.40,      2.00,     1.214,      0.00
  2032.80,      2.00,     1.272,      0.00
  2033.10,      2.00,     1.349,      0.00
  2077.80,      2.00,     1.316,      0.00
  2077.90,      2.00,     1.342,      0.00
  2078.00,      2.00,     1.368,      0.00
  2078.10,      2.00,      1.40,      0.00
  2084.10,      2.00,     1.272,      0.00
  2129.00,      2.00,     1.284,      0.00
  2180.20,      2.00,     1.226,      0.00
  2180.30,      2.00,     1.265,      0.00
  2180.40,      2.00,     1.303,      0.00
  2231.30,      2.00,     1.169,      0.00
  2231.50,      2.00,     1.252,      0.00
  2276.30,      2.00,     1.207,      0.00
  2289.00,      2.00,     1.175,      0.00
  2327.60,      2.00,     1.213,      0.00
  2333.90,      2.00,     1.175,      0.00
  2385.00,      2.00,     1.136,      0.00
  2385.10,      2.00,     1.175,      0.00
  2430.00,      2.00,     1.149,      0.00
  2430.10,      2.00,     1.213,      0.00
  2487.50,      2.00,     1.097,      0.00
  2538.60,      2.00,      1.02,      0.00
  2538.80,      2.00,      1.11,      0.00
  2583.40,      2.00,     0.995,      0.00
  2634.50,      2.00,      0.93,      0.00
  2634.80,      2.00,     1.033,      0.00
  2685.90,      2.00,     0.981,      0.00
  2737.30,      2.00,      1.02,      0.00
  2782.20,      2.00,     1.045,      0.00
  2833.70,      2.00,     1.096,      0.00
  2885.00,      2.00,     1.122,      0.00
  2936.20,      2.00,     1.077,      0.00
  2936.40,      2.00,     1.147,      0.00
  2981.10,      2.00,     1.096,      0.00
  3035.50,      2.00,     1.123,      0.00
  3089.20,      2.00,      1.16,      0.00
  3135.30,      2.00,     1.198,      0.00
  3185.10,      2.00,     1.081,      0.00
  3238.90,      2.00,     1.196,      0.00
  3284.90,      2.00,      1.08,      0.00
  3334.80,      2.00,     1.233,      0.00
  3384.70,      2.00,     1.271,      0.00
  3434.60,      2.00,     1.347,      0.00
  3488.30,      2.00,     1.462,      0.00
  3538.30,      2.00,     1.731,      0.00
  3588.20,      2.00,    1.9805,    0.0965
  3638.10,      2.00,     2.153,      0.00
  3688.10,      2.00,     2.653,      0.00
  3734.10,      2.00,     2.884,      0.00
  3784.10,      2.00,     3.326,     0.212
  3834.00,      2.00,     3.653,      0.00
  3887.80,      2.00,     3.691,      0.00
  3934.20,      2.00,     5.963,      0.00
  3984.70,      2.00,    10.316,      0.00
  3984.80,      2.00,    10.625,      0.00
  4034.40,      2.00,     8.774,      0.00
  4088.10,      2.00,     8.658,      0.00
  4134.30,      2.00,     9.505,      0.00
  4188.00,      2.00,     9.581,      0.00
  4188.10,      2.00,     9.928,      0.00
EndData:
