Comment:    Automatically converted from EXFOR
            by the IAEA-NDS EXFOR Web-Retrieval System
            program version-2015/03/13, by V.Zerkin.
            "Measurement of differential cross sections in a+9Be
             elastic scattering."
            I.Lombardo,  L.Campajola,  E.Rosato,  G.Spadaccini, 
            M.Vigilante
            EXFOR: O2137003    Created: 2013-07-06  Updated: 2015-06-04
            X4Reaction:4-BE-9(A,EL)4-BE-9,,DA; X4Points:411
            LevelEnergy: 0.00

Version:      R33
X4Number:     O2137003
Source:       I.Lombardo+(2013), Jour. Nucl. Instrum. Methods in Physics Res., Sect.B, Vol.302, p.19
Reaction:     9Be(a,a0)9Be
Distribution: Energy
Sigfactors:   1.00, 0.00
Enfactors:    1.00, 0.00, 0.00, 0.00
Units:        mb
Composition:
Masses:       4.0, 9.0, 4.0, 9.0
Zeds:         2, 4, 2, 4
Qvalue:       0.0, 0.00, 0.00, 0.00, 0.00
Theta:        135
Data:
 3840.00,     0.00,  14.0619,   1.1046
 3900.00,     0.00,  14.2318,   1.1046
 3960.00,     0.00,  14.8266,    1.147
 4020.00,     0.00,  15.8462,    1.232
 4080.00,     0.00,  14.1894,   1.1046
 4140.00,     0.00,  12.8724,   0.9771
 4200.00,     0.00,    12.49,   0.9771
 4260.00,     0.00,  13.2122,   1.0196
 4320.00,     0.00,  13.2972,   1.0196
 4380.00,     0.00,  14.2318,   1.1046
 4440.00,     0.00,  14.7416,    1.147
 4500.00,     0.00,  15.4214,   1.1895
 4560.00,     0.00,  15.2514,   1.1895
 4620.00,     0.00,   16.271,   1.2745
 4690.00,     0.00,  17.3756,   1.3595
 4750.00,     0.00,  18.4801,   1.4444
 4810.00,     0.00,  19.5422,   1.5294
 4870.00,     0.00,  20.4769,   1.5719
 4940.00,     0.00,  22.0487,   1.6993
 4990.00,     0.00,  34.6237,   2.6764
 5050.00,     0.00,   45.117,   3.4836
 5100.00,     0.00,  36.6629,   2.8464
 5170.00,     0.00,  23.4932,   1.8268
 5230.00,     0.00,  16.7383,   1.2745
 5290.00,     0.00,  14.3168,   1.1046
 5350.00,     0.00,   13.892,   1.0621
 5410.00,     0.00,   13.722,   1.0621
 5470.00,     0.00,  15.2514,   1.1895
 5530.00,     0.00,  17.3331,   1.3595
 5590.00,     0.00,  21.9213,   1.6993
 5650.00,     0.00,  27.1042,   2.0817
 5710.00,     0.00,  31.0976,   2.4215
 5770.00,     0.00,  34.5388,   2.6764
 5840.00,     0.00,  38.5322,   2.9738
 5900.00,     0.00,    37.81,   2.9313
 5960.00,     0.00,  37.4701,   2.8889
 6020.00,     0.00,  37.0453,   2.8464
 6080.00,     0.00,  33.4767,   2.5915
 6140.00,     0.00,  32.3296,   2.5065
 6200.00,     0.00,  30.1205,   2.3366
 6260.00,     0.00,  29.6532,   2.2941
 6320.00,     0.00,  27.8689,   2.1666
 6380.00,     0.00,  26.5095,   2.0392
 6440.00,     0.00,  24.8951,   1.9117
 6500.00,     0.00,  22.5585,   1.7418
 6560.00,     0.00,  21.1991,   1.6568
 6620.00,     0.00,  20.3069,   1.5719
 6680.00,     0.00,  19.1599,   1.4869
 6740.00,     0.00,  19.2873,   1.4869
 6800.00,     0.00,  17.9279,   1.4019
 6860.00,     0.00,  18.9475,   1.4444
 6920.00,     0.00,  18.9475,   1.4869
 6980.00,     0.00,  21.1566,   1.6144
 7040.00,     0.00,   21.369,   1.6568
 7100.00,     0.00,  20.7318,   1.6144
 7160.00,     0.00,  20.0095,   1.5294
 7220.00,     0.00,  19.0749,   1.4869
 7280.00,     0.00,   20.052,   1.5294
 7340.00,     0.00,  19.5847,   1.5294
 7400.00,     0.00,  18.6501,   1.4444
 7460.00,     0.00,  17.1207,    1.317
 7520.00,     0.00,  17.2057,    1.317
 7580.00,     0.00,  14.9965,    1.147
 7650.00,     0.00,  14.6992,    1.147
 7710.00,     0.00,   13.807,   1.0621
 7770.00,     0.00,  11.7678,   0.8921
 7830.00,     0.00,   9.3463,   0.7222
 7890.00,     0.00,    7.647,   0.5948
 7950.00,     0.00,   7.3921,   0.5523
 8010.00,     0.00,   8.1568,   0.6372
 8070.00,     0.00,   8.3267,   0.6372
 8130.00,     0.00,   8.3692,   0.6372
 8190.00,     0.00,   8.3692,   0.6372
 8250.00,     0.00,   8.4966,   0.6372
 8310.00,     0.00,   8.3692,   0.6372
 8370.00,     0.00,   8.2842,   0.6372
 8430.00,     0.00,   8.4541,   0.6372
 8490.00,     0.00,   8.5391,   0.6797
 8550.00,     0.00,   8.7515,   0.6797
 8610.00,     0.00,   8.4117,   0.6372
 8670.00,     0.00,   8.8365,   0.6797
 8730.00,     0.00,   9.0914,   0.7222
 8790.00,     0.00,   8.7515,   0.6797
 8850.00,     0.00,   8.9215,   0.6797
 8910.00,     0.00,   9.0914,   0.7222
 8970.00,     0.00,   8.6241,   0.6797
 9030.00,     0.00,    8.879,   0.6797
 9090.00,     0.00,   8.4117,   0.6372
 9150.00,     0.00,   8.1568,   0.6372
 9210.00,     0.00,   8.6666,   0.6797
 9270.00,     0.00,   8.3692,   0.6372
 9330.00,     0.00,   8.2417,   0.6372
 9390.00,     0.00,   7.9443,   0.5948
 9450.00,     0.00,   9.2613,   0.7222
 9510.00,     0.00,  10.4508,   0.8072
 9570.00,     0.00,  11.6829,   0.8921
 9630.00,     0.00,  13.7645,   1.0621
 9690.00,     0.00,   13.892,   1.0621
 9750.00,     0.00,  14.8266,    1.147
 9810.00,     0.00,  15.4638,   1.1895
 9870.00,     0.00,  15.7612,    1.232
 9940.00,     0.00,  15.8887,    1.232
EndData:

