Comment: Data were digitized. Energy digitizing error is 0.02 MeV
         data digitizing error is 0.016 mb/sr.
         Data were converted from the center-of mass to
         the laboratory system.

Version: R33
Source: J.M. Morris et al. Nuclear Physics A v.112 (1968) 97
Name: Taova Sophiya 
Address1: All-Russia Scientific Research Institute of Experimental Physics
Address2: 607190, Mira, 37, Sarov, Nizhni Novgorod reg., Russia
Address3: tel: (831-30) 2-77-79   fax:( 831-30) 4-55-69
Address4: e-mail: taova@expd.vniief.ru
Serial Number: 
SubFile: 
X4Number: F1041003
Reaction: 12C(a,a0)12C
Distribution: Energy
Composition: 
Masses:    4.000,   12.000,    4.000,   12.000
Zeds: 2,  6,  2,  6
Qvalue:        0.00,      0.00,      0.00,      0.00,      0.00
Theta:    71.55
Sigfactors: 1.00, 0.00 
Enfactors: 1000.00, 0.00, 0.00, 0.00
Units: mb
Data:
6.605       0.0      58.1073      0.0
6.7038      0.0      54.0120      0.0
6.8025      0.0      49.9155      0.0
6.9012      0.0      46.1927      0.0
7.0031      0.0      45.8214      0.0
7.0254      0.0      45.0775      0.0
7.0382      0.0      43.5875      0.0
7.0636      0.0      44.7050      0.0
7.0828      0.0      42.4711      0.0
7.1146      0.0      40.6097      0.0
7.1242      0.0      39.8647      0.0
7.1465      0.0      39.8647      0.0
7.1528      0.0      43.2173      0.0
7.1624      0.0      41.3547      0.0
7.1783      0.0      39.8659      0.0
7.1974      0.0      39.1208      0.0
7.2229      0.0      38.3758      0.0
7.2675      0.0      37.2595      0.0
7.3057      0.0      36.5156      0.0
7.4044      0.0      29.4402      0.0
7.5063      0.0      22.3648      0.0
7.6051      0.0      11.1922      0.0
7.621       0.0      10.8200      0.0
7.6465      0.0      7.8407       0.0
7.6688      0.0      5.2338       0.0
7.6847      0.0      3.3717       0.0
7.6943      0.0      2.2544       0.0
7.7134      0.0      1.5098       0.0
7.758       0.0      0.7656       0.0
7.7739      0.0      1.8833       0.0
7.7898      0.0      5.2357       0.0
7.8057      0.0      11.9403      0.0
7.828       0.0      19.3894      0.0
7.8471      0.0      28.7022      0.0
7.8598      0.0      33.9162      0.0
7.8853      0.0      53.6582      0.0
7.898       0.0      65.2038      0.0
7.9458      0.0      79.3592      0.0
7.9553      0.0      81.2206      0.0
7.984       0.0      87.5533      0.0
8.0031      0.0      90.9059      0.0
8.0254      0.0      93.1410      0.0
8.0572      0.0      94.6311      0.0
8.1018      0.0      92.3972      0.0
8.1114      0.0      88.6732      0.0
8.1273      0.0      89.7908      0.0
8.14        0.0      88.3007      0.0
8.1528      0.0      87.1832      0.0
8.1559      0.0      89.0457      0.0
8.1655      0.0      87.5568      0.0
8.1782      0.0      86.8118      0.0
8.1878      0.0      84.9493      0.0
8.1942      0.0      83.4592      0.0
8.2101      0.0      84.9493      0.0
8.3088      0.0      77.8750      0.0
8.4044      0.0      74.8961      0.0
8.4999      0.0      73.0359      0.0
EndData:
