Comment:    Automatically converted from EXFOR at 2020-09-09,08:28:57
            by the IAEA-NDS EXFOR Web-Retrieval System,
            program X4toR33 ver-2020-05-11 (V.Zerkin).
            X4Title: "Spectroscopy of semiconductor detector by means of
                      16O+d, 18O+p nuclear reactions"
            X4Author: G.Amsel
            EXFOR: D0086002    Created: 2004-02-19  Updated: 2005-09-26
            X4Reaction:8-O-16(D,A)7-N-14,,DA; X4Points:385
            Converted from C.M. to Lab.: Sigma (Theta: not converted) 
            SigmaLab=SigmaCM/{1.128644, 1.1880516}
            ENSDF:LevelEnergy=0.00
            AME2016: M1=2.014101778 M2=15.994914619 M3=4.002603254 M4=14.003074004

Version:      R33
X4Number:     D0086002 20050926
Source:       G.Amsel(1964), Jour. Annales de Physique (Paris), Vol.9, p.297
Reaction:     16O(d,a)14N
Distribution: Energy
Sigfactors:   1.00, 0.00
Enfactors:    1.00, 0.00, 0.00, 0.00
Units:        mb
Composition:
Masses:       2.0, 16.0, 4.0, 14.0
Zeds:         1, 8, 2, 7
Qvalue:       3110.39, 0.00, 0.00, 0.00, 0.00
Theta:        135
Data:
   806.30,      0.00,    0.9768,      0.00
   814.52,      0.00,    1.1885,      0.00
   824.65,      0.00,    1.4588,      0.00
   833.51,      0.00,    1.7173,      0.00
   845.03,      0.00,    2.3885,      0.00
   855.14,      0.00,    2.6221,      0.00
   864.04,      0.00,    2.9857,      0.00
   871.67,      0.00,    3.3021,      0.00
   882.36,      0.00,    3.3694,      0.00
   892.49,      0.00,    3.6727,      0.00
   901.96,      0.00,    3.8463,      0.00
   911.44,      0.00,     4.055,      0.00
   920.86,      0.00,    4.1105,      0.00
   930.35,      0.00,    4.3424,      0.00
   941.12,      0.00,    4.6558,      0.00
   951.20,      0.00,     4.793,      0.00
   961.33,      0.00,    5.0826,      0.00
   972.11,      0.00,    5.4421,      0.00
   984.07,      0.00,    5.5661,      0.00
  1004.30,      0.00,    5.9558,      0.00
  1013.70,      0.00,    7.9069,      0.00
  1026.60,      0.00,    9.0116,      0.00
  1037.40,      0.00,    9.4497,      0.00
  1046.90,      0.00,    9.5018,      0.00
  1058.60,      0.00,    9.0506,      0.00
  1068.50,      0.00,    8.6483,      0.00
  1078.30,      0.00,    7.8144,      0.00
  1087.50,      0.00,    7.2265,      0.00
  1098.00,      0.00,    6.6736,      0.00
  1107.20,      0.00,    6.1568,      0.00
  1117.70,      0.00,      5.64,      0.00
  1125.70,      0.00,     5.311,      0.00
  1135.70,      0.00,     4.993,      0.00
  1144.40,      0.00,    4.7109,      0.00
  1155.00,      0.00,    4.5909,      0.00
  1165.50,      0.00,    4.3202,      0.00
  1174.90,      0.00,     4.143,      0.00
  1184.30,      0.00,    4.0123,      0.00
  1194.90,      0.00,    3.8931,      0.00
  1204.90,      0.00,    3.7742,      0.00
  1214.90,      0.00,    3.7712,      0.00
  1224.90,      0.00,    3.6873,      0.00
  1235.60,      0.00,    3.7421,      0.00
  1246.90,      0.00,    3.7852,      0.00
  1267.00,      0.00,    3.7564,      0.00
  1276.40,      0.00,    3.7653,      0.00
  1282.60,      0.00,    3.6827,      0.00
  1287.70,      0.00,    3.7159,      0.00
  1291.40,      0.00,    3.7264,      0.00
  1298.20,      0.00,     3.482,      0.00
  1302.50,      0.00,    3.0075,      0.00
  1308.70,      0.00,    2.8559,      0.00
  1313.70,      0.00,    2.7855,      0.00
  1319.40,      0.00,    2.9226,      0.00
  1324.40,      0.00,     2.956,      0.00
  1329.40,      0.00,    2.9779,      0.00
  1340.00,      0.00,    2.7447,      0.00
  1351.20,      0.00,    2.6039,      0.00
  1359.90,      0.00,    2.2104,      0.00
  1372.30,      0.00,    1.9315,      0.00
  1382.90,      0.00,    1.6188,      0.00
  1393.50,      0.00,    1.3983,      0.00
  1404.10,      0.00,    1.1781,      0.00
  1415.30,      0.00,    1.0959,      0.00
  1427.90,      0.00,    1.0709,      0.00
  1437.90,      0.00,    1.0579,      0.00
  1448.60,      0.00,    1.0447,      0.00
  1459.30,      0.00,    1.1348,      0.00
  1470.60,      0.00,    1.2133,      0.00
  1477.50,      0.00,    1.3497,      0.00
  1481.30,      0.00,    1.5095,      0.00
  1487.10,      0.00,    1.7377,      0.00
  1492.80,      0.00,     1.897,      0.00
  1497.80,      0.00,    2.1023,      0.00
  1502.30,      0.00,    2.2388,      0.00
  1511.10,      0.00,    2.4775,      0.00
  1521.80,      0.00,    2.6125,      0.00
  1530.70,      0.00,    2.6793,      0.00
  1539.50,      0.00,    2.8375,      0.00
  1549.50,      0.00,    2.8467,      0.00
  1559.60,      0.00,    3.0731,      0.00
  1569.80,      0.00,    3.4134,      0.00
  1579.30,      0.00,     3.571,      0.00
  1591.90,      0.00,    3.7734,      0.00
  1601.30,      0.00,    3.8395,      0.00
  1611.10,      0.00,    5.0003,      0.00
  1622.40,      0.00,    4.9514,      0.00
  1628.60,      0.00,    4.8699,      0.00
  1635.60,      0.00,    5.0957,      0.00
  1646.30,      0.00,    5.2976,      0.00
  1657.70,      0.00,    5.5789,      0.00
  1669.20,      0.00,    6.2469,      0.00
  1678.90,      0.00,    7.0857,      0.00
  1690.00,      0.00,    8.1623,      0.00
  1701.60,      0.00,    9.3056,      0.00
  1712.00,      0.00,   10.3246,      0.00
  1722.50,      0.00,   11.4668,      0.00
  1733.40,      0.00,   12.3135,      0.00
  1744.80,      0.00,   12.5795,      0.00
  1753.60,      0.00,   12.5071,      0.00
  1763.40,      0.00,   12.0594,      0.00
  1773.20,      0.00,   11.1702,      0.00
  1783.70,      0.00,   10.7679,      0.00
  1792.20,      0.00,   10.0954,      0.00
  1799.50,      0.00,    9.3101,      0.00
  1811.20,      0.00,     8.773,      0.00
  1822.40,      0.00,    8.5421,      0.00
  1833.60,      0.00,     8.164,      0.00
  1840.50,      0.00,    8.1614,      0.00
  1849.90,      0.00,    8.1014,      0.00
  1860.10,      0.00,    8.5496,      0.00
  1867.00,      0.00,    8.6036,      0.00
  1874.50,      0.00,    8.5331,      0.00
  1885.60,      0.00,    7.9979,      0.00
  1894.20,      0.00,    7.4299,      0.00
  1904.60,      0.00,    6.8503,      0.00
  1914.00,      0.00,    6.7005,      0.00
  1921.50,      0.00,    6.5626,      0.00
  1930.30,      0.00,    6.6163,      0.00
  1937.20,      0.00,    6.6593,      0.00
  1946.60,      0.00,    6.6563,      0.00
  1955.40,      0.00,    6.8228,      0.00
  1966.80,      0.00,    6.9545,      0.00
  1976.30,      0.00,    7.2333,      0.00
  1985.70,      0.00,    7.3203,      0.00
  1996.40,      0.00,    7.3844,      0.00
  2007.70,      0.00,    7.4707,      0.00
  2015.20,      0.00,    7.3557,      0.00
EndData
