Comment:    Automatically converted from EXFOR on 2020-04-08,00:39:19
            by the IAEA-NDS EXFOR Web-Retrieval System
            program ver-2019-12-10 (V.Zerkin).
            X4Title: "A Study of 15N by Means of the 11B(alpha,alpha)11B
                      Reaction"
            X4Author: W.R.Ott, H.R.Weller
            EXFOR: C0754005    Created: 2000-12-01  Updated: 2010-09-18
            X4Reaction:5-B-11(A,EL)5-B-11,,DA; X4Points:49
            Converted from C.M. to Lab.: Sigma, Theta
            SigmaLab=SigmaCM/1.6541501
            ThetaLab=122 ThetaCM:140.0
            ENSDF:LevelEnergy=0.00
            Systematic uncertainty: ErrSys=30.0%
            AME2016: M1=4.002603254 M2=11.009305166 M3=4.002603254 M4=11.009305166

Version:      R33
X4Number:     C0754005 20100918
Source:       W.R.Ott+(1972), Jour. Nuclear Physics, Section A, Vol.198, p.505
Reaction:     11B(a,a0)11B
Distribution: Energy
Sigfactors:   1.00, 0.30
Enfactors:    1.00, 0.00, 0.00, 0.00
Units:        mb
Composition:
Masses:       4.0, 11.0, 4.0, 11.0
Zeds:         2, 5, 2, 5
Qvalue:       0.0, 0.00, 0.00, 0.00, 0.00
Theta:        122
Data:
  3960.00,     25.00,   13.3658,      0.00
  3980.00,     25.00,   13.7781,      0.00
  4000.00,     25.00,   12.6651,      0.00
  4020.00,     25.00,   12.9492,      0.00
  4040.00,     25.00,   12.5986,      0.00
  4060.00,     25.00,   12.3429,      0.00
  4080.00,     25.00,   13.7079,      0.00
  4100.00,     25.00,   13.8651,      0.00
  4120.00,     25.00,   14.4358,      0.00
  4140.00,     25.00,    17.262,      0.00
  4160.00,     25.00,   19.1984,      0.00
  4180.00,     25.00,   19.5466,      0.00
  4200.00,     25.00,   21.0386,      0.00
  4220.00,     25.00,    22.403,      0.00
  4240.00,     25.00,   20.6227,      0.00
  4260.00,     25.00,   19.8906,      0.00
  4280.00,     25.00,   19.9214,      0.00
  4300.00,     25.00,   20.1741,      0.00
  4320.00,     25.00,   22.1104,      0.00
  4340.00,     25.00,   22.6497,      0.00
  4360.00,     25.00,   23.8237,      0.00
  4380.00,     25.00,   24.3624,      0.00
  4400.00,     25.00,   24.9965,      0.00
  4420.00,     25.00,   23.3431,      0.00
  4440.00,     25.00,   23.2464,      0.00
  4460.00,     25.00,   23.6895,      0.00
  4480.00,     25.00,   24.5461,      0.00
  4500.00,     25.00,   24.9893,      0.00
  4540.00,     25.00,   24.9246,      0.00
  4560.00,     25.00,   26.9232,      0.00
  4580.00,     25.00,   26.5726,      0.00
  4600.00,     25.00,   26.6983,      0.00
  4620.00,     25.00,   25.7117,      0.00
  4640.00,     25.00,   24.4718,      0.00
  4660.00,     25.00,   22.6279,      0.00
  4680.00,     25.00,    21.006,      0.00
  4700.00,     25.00,   19.2576,      0.00
  4720.00,     25.00,   16.3963,      0.00
  4740.00,     25.00,   14.5211,      0.00
  4760.00,     25.00,   14.0749,      0.00
  4780.00,     25.00,   11.6912,      0.00
  4800.00,     25.00,   11.4355,      0.00
  4820.00,     25.00,   10.8938,      0.00
  4840.00,     25.00,   10.1303,      0.00
  4860.00,     25.00,   10.4465,      0.00
  4880.00,     25.00,   10.6036,      0.00
  4900.00,     25.00,    10.126,      0.00
  4920.00,     25.00,   10.6333,      0.00
  4940.00,     25.00,   10.3461,      0.00
EndData:

