Comment:    Automatically converted from EXFOR on 2020-04-08,00:39:52
            by the IAEA-NDS EXFOR Web-Retrieval System
            program ver-2019-12-10 (V.Zerkin).
            X4Title: "A Study of 15N by Means of the 11B(alpha,alpha)11B
                      Reaction"
            X4Author: W.R.Ott, H.R.Weller
            EXFOR: C0754002    Created: 2000-12-01  Updated: 2010-09-18
            X4Reaction:5-B-11(A,EL)5-B-11,,DA; X4Points:189
            Converted from C.M. to Lab.: Sigma, Theta
            SigmaLab=SigmaCM/1.4138019
            ThetaLab=110 ThetaCM:130.0
            ENSDF:LevelEnergy=0.00
            Systematic uncertainty: ErrSys=30.0%
            AME2016: M1=4.002603254 M2=11.009305166 M3=4.002603254 M4=11.009305166

Version:      R33
X4Number:     C0754002 20100918
Source:       W.R.Ott+(1972), Jour. Nuclear Physics, Section A, Vol.198, p.505
Reaction:     11B(a,a0)11B
Distribution: Energy
Sigfactors:   1.00, 0.30
Enfactors:    1.00, 0.00, 0.00, 0.00
Units:        mb
Composition:
Masses:       4.0, 11.0, 4.0, 11.0
Zeds:         2, 5, 2, 5
Qvalue:       0.0, 0.00, 0.00, 0.00, 0.00
Theta:        110
Data:
  4000.00,     25.00,   12.9085,      0.00
  4020.00,     25.00,    6.6983,      0.00
  4040.00,     25.00,    7.3136,      0.00
  4060.00,     25.00,     7.929,      0.00
  4080.00,     25.00,    9.6195,      0.00
  4100.00,     25.00,   11.2109,      0.00
  4120.00,     25.00,    9.8741,      0.00
  4140.00,     25.00,   16.0843,      0.00
  4160.00,     25.00,   15.7731,      0.00
  4180.00,     25.00,   18.2911,      0.00
  4200.00,     25.00,   16.9048,      0.00
  4220.00,     25.00,   17.9799,      0.00
  4240.00,     25.00,   20.6465,      0.00
  4260.00,     25.00,   18.8994,      0.00
  4280.00,     25.00,   18.1779,      0.00
  4300.00,     25.00,   19.4087,      0.00
  4320.00,     25.00,   16.1267,      0.00
  4340.00,     25.00,    18.277,      0.00
  4360.00,     25.00,   18.7367,      0.00
  4380.00,     25.00,   21.3043,      0.00
  4400.00,     25.00,   19.2531,      0.00
  4420.00,     25.00,    20.123,      0.00
  4440.00,     25.00,   18.2699,      0.00
  4460.00,     25.00,   18.5245,      0.00
  4480.00,     25.00,   19.5006,      0.00
  4500.00,     25.00,   19.1399,      0.00
  4520.00,     25.00,   18.5245,      0.00
  4540.00,     25.00,   19.8543,      0.00
  4560.00,     25.00,   19.1328,      0.00
  4580.00,     25.00,   22.4713,      0.00
  4600.00,     25.00,   22.5208,      0.00
  4620.00,     25.00,   22.6764,      0.00
  4640.00,     25.00,   23.0301,      0.00
  4660.00,     25.00,   21.3891,      0.00
  4680.00,     25.00,   19.2318,      0.00
  4700.00,     25.00,   18.1496,      0.00
  4720.00,     25.00,   16.5087,      0.00
  4740.00,     25.00,    15.377,      0.00
  4760.00,     25.00,   13.6228,      0.00
  4800.00,     25.00,   12.7033,      0.00
  4820.00,     25.00,   11.5716,      0.00
  4840.00,     25.00,   10.9492,      0.00
  4860.00,     25.00,   10.6946,      0.00
  4880.00,     25.00,    9.6124,      0.00
  4920.00,     25.00,   10.8926,      0.00
  4940.00,     25.00,   12.1233,      0.00
  4960.00,     25.00,   12.2294,      0.00
  4980.00,     25.00,   12.2789,      0.00
  5000.00,     25.00,   10.6309,      0.00
  5020.00,     25.00,   13.5097,      0.00
  5040.00,     25.00,   14.4292,      0.00
  5060.00,     25.00,   14.8889,      0.00
  5080.00,     25.00,   16.3248,      0.00
  5100.00,     25.00,   17.3504,      0.00
  5120.00,     25.00,   18.4255,      0.00
  5140.00,     25.00,   19.6067,      0.00
  5160.00,     25.00,   19.6562,      0.00
  5180.00,     25.00,    20.116,      0.00
  5200.00,     25.00,   23.2494,      0.00
  5220.00,     25.00,   23.8152,      0.00
  5240.00,     25.00,   26.4818,      0.00
  5260.00,     25.00,   27.2528,      0.00
  5280.00,     25.00,   26.0715,      0.00
  5300.00,     25.00,    23.603,      0.00
  5320.00,     25.00,   21.4457,      0.00
  5340.00,     25.00,   21.2901,      0.00
  5360.00,     25.00,   22.5703,      0.00
  5380.00,     25.00,   23.9072,      0.00
  5400.00,     25.00,   26.0079,      0.00
  5420.00,     25.00,   26.6232,      0.00
  5440.00,     25.00,   27.2386,      0.00
  5460.00,     25.00,   26.3615,      0.00
  5500.00,     25.00,   26.1069,      0.00
  5520.00,     25.00,    26.312,      0.00
  5540.00,     25.00,   27.7974,      0.00
  5560.00,     25.00,   26.7647,      0.00
  5580.00,     25.00,   29.4384,      0.00
  5600.00,     25.00,   29.3818,      0.00
  5620.00,     25.00,   28.2006,      0.00
  5640.00,     25.00,   27.0193,      0.00
  5660.00,     25.00,   26.8142,      0.00
  5680.00,     25.00,   26.8142,      0.00
  5700.00,     25.00,   27.3235,      0.00
  5720.00,     25.00,   28.3986,      0.00
  5740.00,     25.00,   28.3491,      0.00
  5760.00,     25.00,   29.3181,      0.00
  5780.00,     25.00,    32.402,      0.00
  5800.00,     25.00,    39.949,      0.00
  5820.00,     25.00,   43.5422,      0.00
  5840.00,     25.00,   40.5573,      0.00
  5860.00,     25.00,   37.1693,      0.00
  5880.00,     25.00,   35.5283,      0.00
  5900.00,     25.00,    31.723,      0.00
  5940.00,     25.00,   31.9776,      0.00
  5960.00,     25.00,   29.6647,      0.00
  5980.00,     25.00,   32.4374,      0.00
  6020.00,     25.00,    39.369,      0.00
  6040.00,     25.00,   32.9961,      0.00
  6060.00,     25.00,   35.3586,      0.00
  6080.00,     25.00,   30.6832,      0.00
  6100.00,     25.00,    24.473,      0.00
  6120.00,     25.00,    22.054,      0.00
  6140.00,     25.00,    8.9617,      0.00
  6160.00,     25.00,   14.7616,      0.00
  6180.00,     25.00,    14.606,      0.00
  6200.00,     25.00,   17.5838,      0.00
  6220.00,     25.00,   22.2521,      0.00
  6240.00,     25.00,   25.9513,      0.00
  6260.00,     25.00,   27.0264,      0.00
  6280.00,     25.00,   31.5957,      0.00
  6300.00,     25.00,   30.7752,      0.00
  6320.00,     25.00,   30.0042,      0.00
  6340.00,     25.00,   30.6196,      0.00
  6360.00,     25.00,   30.1527,      0.00
  6400.00,     25.00,   30.7115,      0.00
  6420.00,     25.00,   30.8671,      0.00
  6440.00,     25.00,   31.1218,      0.00
  6460.00,     25.00,   29.3252,      0.00
  6480.00,     25.00,   29.2686,      0.00
  6500.00,     25.00,   29.4737,      0.00
  6520.00,     25.00,   30.8105,      0.00
  6540.00,     25.00,   31.3693,      0.00
  6560.00,     25.00,   32.9608,      0.00
  6580.00,     25.00,   36.2993,      0.00
  6600.00,     25.00,   40.1966,      0.00
  6620.00,     25.00,   46.6685,      0.00
  6640.00,     25.00,   55.0855,      0.00
  6660.00,     25.00,   53.7487,      0.00
  6680.00,     25.00,   50.8204,      0.00
  6720.00,     25.00,   43.2239,      0.00
  6740.00,     25.00,   30.0254,      0.00
  6760.00,     25.00,   25.8664,      0.00
  6780.00,     25.00,   24.7347,      0.00
  6800.00,     25.00,   26.9911,      0.00
  6820.00,     25.00,    35.203,      0.00
  6840.00,     25.00,     32.02,      0.00
  6860.00,     25.00,   39.4115,      0.00
  6880.00,     25.00,   39.5671,      0.00
  6900.00,     25.00,   40.1754,      0.00
  6920.00,     25.00,   39.0507,      0.00
  6940.00,     25.00,   38.4778,      0.00
  6960.00,     25.00,   34.8351,      0.00
  6980.00,     25.00,   34.4744,      0.00
  7000.00,     25.00,   32.0059,      0.00
  7020.00,     25.00,   30.4144,      0.00
  7040.00,     25.00,   29.5374,      0.00
  7060.00,     25.00,   29.5374,      0.00
  7080.00,     25.00,   28.6108,      0.00
  7100.00,     25.00,   27.4791,      0.00
  7120.00,     25.00,   28.9715,      0.00
  7140.00,     25.00,   29.6859,      0.00
  7160.00,     25.00,    29.792,      0.00
  7180.00,     25.00,   30.8176,      0.00
  7200.00,     25.00,   32.6071,      0.00
  7220.00,     25.00,   32.7627,      0.00
  7240.00,     25.00,   30.6054,      0.00
  7260.00,     25.00,   31.4259,      0.00
  7280.00,     25.00,   32.8617,      0.00
  7300.00,     25.00,   32.1898,      0.00
  7320.00,     25.00,   33.5761,      0.00
  7340.00,     25.00,   32.8052,      0.00
  7360.00,     25.00,   34.1915,      0.00
  7380.00,     25.00,   34.9059,      0.00
  7400.00,     25.00,   36.2427,      0.00
  7420.00,     25.00,   35.8325,      0.00
  7440.00,     25.00,   35.8254,      0.00
  7460.00,     25.00,   42.2973,      0.00
  7480.00,     25.00,   43.1178,      0.00
  7500.00,     25.00,   42.1417,      0.00
  7520.00,     25.00,   42.1912,      0.00
  7540.00,     25.00,    40.338,      0.00
  7560.00,     25.00,   37.4098,      0.00
  7580.00,     25.00,   35.7688,      0.00
  7600.00,     25.00,    35.203,      0.00
  7620.00,     25.00,   34.0712,      0.00
  7640.00,     25.00,   32.4798,      0.00
  7660.00,     25.00,   28.4693,      0.00
  7680.00,     25.00,   25.9018,      0.00
  7700.00,     25.00,   23.9496,      0.00
  7720.00,     25.00,   20.1443,      0.00
  7740.00,     25.00,   18.6589,      0.00
  7760.00,     25.00,   16.1904,      0.00
  7780.00,     25.00,   16.5511,      0.00
  7800.00,     25.00,   17.4211,      0.00
  7820.00,     25.00,   19.7269,      0.00
  7840.00,     25.00,   20.1938,      0.00
  7860.00,     25.00,   22.6057,      0.00
  7880.00,     25.00,   22.1884,      0.00
  8000.00,     25.00,   22.2379,      0.00
EndData:
