Comment: Data were digitized. Energy digitizing error is 0.002 keV
         data digitizing error is 5.308 mb/sr.
         Data were converted from the center-of mass to the laboratory system.    

Version: R33
Source: N. Moncoffre et al. Nuclear Instruments and Methods in Physics Research  B v.45 (1990) 81
Name: Elena Kamskaya 
Address1: All-Russia Scientific Research Institute of Experimental Physics
Address2: 607190, Mira, 37, Sarov, Nizhni Novgorod reg., Russia
Address3: tel: (831-30) 2-77-79   fax:( 831-30) 4-55-69
Address4: e-mail: kamskaya@expd.vniief.ru
Serial Number: 
SubFile: 
X4Number:  F1195002
Reaction: 11B(a,a0)11B 
Distribution: Energy
Composition: 
Masses:    4.000,   11.000,    4.000,   11.000
Zeds: 2, 5, 2, 5
Qvalue:        0.00,      0.00,      0.00,      0.00,      0.00
Theta:   172.00
Sigfactors: 1.00, 0.00 
Enfactors: 1000.00, 0.00, 0.00, 0.00
Units: mb
Data:
     3.8504         0.   69.35631         0.
     3.8952         0.    33.3714         0.
     3.9514         0.   17.27251         0.
     4.0019         0.     16.798         0.
     4.0525         0.   14.90319         0.
     4.1031         0.   14.90197         0.
      4.148         0.   20.10859         0.
     4.1986         0.    16.3198         0.
     4.2267         0.   20.10696         0.
     4.2491         0.   19.63285         0.
     4.2772         0.   20.57903         0.
     4.2941         0.   20.10533         0.
     4.3896         0.   24.36414         0.
     4.4458         0.   27.67719         0.
     4.4964         0.   29.56954         0.
     4.5413         0.   30.04201         0.
     4.5919         0.   30.04079         0.
      4.648         0.     26.252         0.
      4.693         0.   20.56963         0.
     4.7491         0.   13.93987         0.
      4.794         0.   11.09807         0.
     4.8446         0.   12.51713         0.
     4.8952         0.    34.2947         0.
     4.9457         0.    3.51935         0.
     4.9963         0.   11.56687         0.
     5.0469         0.   21.98175         0.
     5.0975         0.   26.24138         0.
     5.1424         0.   35.70968         0.
     5.1987         0.   49.91008         0.
     5.2491         0.   19.13628         0.
     5.2941         0.   19.60876         0.
     5.3447         0.   39.49234         0.
     5.3953         0.    50.3797         0.
     5.4515         0.   57.48113         0.
     5.4965         0.   59.84555         0.
     5.5473         0.   134.1798         0.
     5.5977         0.   91.56716         0.
     5.6481         0.   53.21374         0.
     5.6986         0.   35.69661         0.
     5.7492         0.   32.85482         0.
     5.7998         0.   51.31893         0.
     5.8505         0.   83.98386         0.
     5.8786         0.  106.23554         0.
     5.9011         0.  110.02515         0.
     5.9236         0.  128.96092         0.
     5.9517         0.  118.06989         0.
     5.9627         0.   58.88998         0.
     5.9967         0.  126.59242         0.
      6.036         0.  125.17132         0.
     6.0584         0.  114.28029         0.
     6.0809         0.  110.02106         0.
     6.0977         0.   96.28783         0.
     6.1201         0.   81.13757         0.
     6.1368         0.   37.57998         0.
     6.1537         0.   33.31872         0.
     6.1762         0.   46.57376         0.
     6.1987         0.   52.25408         0.
     6.2493         0.   57.93441         0.
     6.2998         0.   65.03583         0.
     6.3504         0.   67.87804         0.
     6.4009         0.   61.71993         0.
     6.4515         0.   46.56968         0.
     6.5023         0.  126.58017         0.
     6.5474         0.  189.07599         0.
      6.598         0.  183.86528         0.
      6.654         0.  122.79056         0.
     6.6989         0.  121.84316         0.
     6.7495         0.  132.25641         0.
     6.8001         0.  131.30901         0.
     6.8507         0.  152.61329         0.
     6.9068         0.   127.5194         0.
     6.9517         0.  118.99687         0.
     7.0078         0.  108.10584         0.
     7.0584         0.  106.21104         0.
     7.1034         0.  109.99656         0.
     7.1539         0.    91.0567         0.
     7.2044         0.   82.06047         0.
     7.2549         0.   82.06047         0.
     7.3055         0.   64.53763         0.
     7.3561         0.   77.79717         0.
      7.401         0.   87.26301         0.
     7.4517         0.  107.14619         0.
     7.5023         0.  127.02937         0.
EndData:
