Comment: Data were digitized. Energy digitizing error is 0.06 keV,
         data digitizing error is 0.0001 mb/sr.
         
Version: R33
Source: L. Zolnai et al. Izvestiya Akademii Nauk v.44 (1980) 2281
Name: Sophiya Taova 
Address1: All-Russia Scientific Research Institute of Experimental Physics
Address2: 607190, Mira, 37, Sarov, Nizhni Novgorod reg., Russia
Address3: tel: (831-30) 2-77-79   fax:( 831-30) 4-55-69
Address4: e-mail: taova@expd.vniief.ru
Serial Number: 
SubFile: 
X4Number: F0925005
Reaction:  19F(a,a0)19F
Distribution: Energy
Composition: 
Masses:    4.000,    19.000,    4.000,    19.000
Zeds: 2,  9,  2,  9
Qvalue:       0.00,      0.00,      0.00,      0.00,      0.00
Theta:     142.0
Sigfactors:    1000.00,  0.00
Enfactors: 1000.00, 0.00, 0.00, 0.00
Units: mb
Data:                   
     2.2937        0.0  8.247E-02        0.0
     2.3009        0.0  8.568E-02        0.0
     2.3053        0.0  8.247E-02        0.0
     2.3156        0.0  8.149E-02        0.0
     2.3171        0.0  7.704E-02        0.0
     2.3258        0.0  8.099E-02        0.0
     2.3302        0.0  7.803E-02        0.0
     2.3346        0.0  7.531E-02        0.0
     2.3404        0.0  7.951E-02        0.0
     2.3463        0.0  7.359E-02        0.0
     2.3492        0.0  7.729E-02        0.0
     2.3565        0.0  7.631E-02        0.0
     2.3623        0.0  7.927E-02        0.0
     2.3638        0.0  7.754E-02        0.0
     2.3726        0.0  7.581E-02        0.0
     2.3799        0.0  7.705E-02        0.0
     2.3828        0.0  8.075E-02        0.0
     2.3872        0.0  7.507E-02        0.0
     2.3945        0.0  7.853E-02        0.0
     2.4003        0.0  7.483E-02        0.0
     2.4018        0.0  7.755E-02        0.0
     2.4091        0.0  7.730E-02        0.0
     2.4105        0.0  7.952E-02        0.0
     2.4178        0.0  8.002E-02        0.0
     2.4222        0.0  7.730E-02        0.0
     2.4295        0.0  7.854E-02        0.0
      2.431        0.0  7.755E-02        0.0
     2.4368        0.0  8.002E-02        0.0
     2.4427        0.0  7.706E-02        0.0
       2.45        0.0  6.842E-02        0.0
       2.45        0.0  7.632E-02        0.0
     2.4559        0.0  7.533E-02        0.0
     2.4617        0.0  7.410E-02        0.0
     2.4675        0.0  7.508E-02        0.0
     2.4734        0.0  7.632E-02        0.0
     2.4822        0.0  7.583E-02        0.0
     2.4851        0.0  7.385E-02        0.0
     2.4909        0.0  7.015E-02        0.0
     2.4953        0.0  7.212E-02        0.0
     2.5011        0.0  7.706E-02        0.0
     2.5085        0.0  6.521E-02        0.0
     2.5085        0.0  7.237E-02        0.0
     2.5158        0.0  5.632E-02        0.0
     2.5202        0.0  6.497E-02        0.0
     2.5246        0.0  6.620E-02        0.0
     2.5319        0.0  6.299E-02        0.0
     2.5333        0.0  6.818E-02        0.0
     2.5421        0.0  6.892E-02        0.0
      2.545        0.0  6.744E-02        0.0
     2.5523        0.0  6.769E-02        0.0
     2.5567        0.0  6.843E-02        0.0
     2.5625        0.0  6.695E-02        0.0
     2.5713        0.0  6.646E-02        0.0
     2.5728        0.0  6.497E-02        0.0
     2.5801        0.0  6.572E-02        0.0
     2.5888        0.0  6.522E-02        0.0
     2.5947        0.0  6.646E-02        0.0
     2.5991        0.0  6.399E-02        0.0
     2.6064        0.0  6.251E-02        0.0
     2.6093        0.0  5.856E-02        0.0
     2.6181        0.0  5.831E-02        0.0
      2.621        0.0  6.029E-02        0.0
     2.6254        0.0  5.733E-02        0.0
     2.6327        0.0  5.461E-02        0.0
     2.6342        0.0  6.029E-02        0.0
       2.64        0.0  6.449E-02        0.0
     2.6458        0.0  6.696E-02        0.0
     2.6473        0.0  6.572E-02        0.0
     2.6546        0.0  6.597E-02        0.0
     2.6619        0.0  6.597E-02        0.0
     2.6634        0.0  6.350E-02        0.0
     2.6677        0.0  6.573E-02        0.0
     2.6707        0.0  6.350E-02        0.0
     2.6794        0.0  6.178E-02        0.0
     2.6809        0.0  6.425E-02        0.0
     2.6882        0.0  6.573E-02        0.0
     2.6926        0.0  6.203E-02        0.0
     2.6999        0.0  6.499E-02        0.0
     2.7014        0.0  6.178E-02        0.0
     2.7057        0.0  6.400E-02        0.0
     2.7072        0.0  5.956E-02        0.0
     2.7145        0.0  6.104E-02        0.0
     2.7174        0.0  6.228E-02        0.0
     2.7203        0.0  6.400E-02        0.0
     2.7233        0.0  6.055E-02        0.0
     2.7291        0.0  5.981E-02        0.0
     2.7306        0.0  5.388E-02        0.0
     2.7335        0.0  5.783E-02        0.0
      2.735        0.0  5.240E-02        0.0
     2.7394        0.0  5.092E-02        0.0
     2.7438        0.0  5.240E-02        0.0
     2.7511        0.0  4.870E-02        0.0
      2.754        0.0  5.191E-02        0.0
     2.7554        0.0  5.759E-02        0.0
     2.7584        0.0  5.463E-02        0.0
     2.7671        0.0  5.833E-02        0.0
     2.7803        0.0  5.562E-02        0.0
     2.7846        0.0  5.883E-02        0.0
     2.7847        0.0  5.734E-02        0.0
     2.8007        0.0  5.661E-02        0.0
     2.8066        0.0  5.562E-02        0.0
      2.808        0.0  5.266E-02        0.0
     2.8168        0.0  5.192E-02        0.0
     2.8197        0.0  5.340E-02        0.0
     2.8241        0.0  5.241E-02        0.0
     2.8329        0.0  5.365E-02        0.0
     2.8373        0.0  5.192E-02        0.0
     2.8402        0.0  4.994E-02        0.0
     2.8431        0.0  4.748E-02        0.0
     2.8519        0.0  4.871E-02        0.0
     2.8548        0.0  5.711E-02        0.0
     2.8606        0.0  5.464E-02        0.0
     2.8636        0.0  4.995E-02        0.0
     2.8694        0.0  4.822E-02        0.0
     2.8811        0.0  4.797E-02        0.0
      2.887        0.0  4.476E-02        0.0
     2.8899        0.0  4.946E-02        0.0
     2.8942        0.0  5.193E-02        0.0
     2.9001        0.0  5.316E-02        0.0
     2.9089        0.0  5.193E-02        0.0
     2.9162        0.0  4.847E-02        0.0
     2.9249        0.0  5.267E-02        0.0
     2.9322        0.0  5.144E-02        0.0
     2.9439        0.0  4.798E-02        0.0
     2.9498        0.0  5.095E-02        0.0
     2.9585        0.0  4.996E-02        0.0
     2.9673        0.0  5.095E-02        0.0
     2.9717        0.0  4.700E-02        0.0
      2.979        0.0  4.700E-02        0.0
     2.9878        0.0  4.626E-02        0.0
     2.9965        0.0  4.873E-02        0.0
     3.0039        0.0  4.503E-02        0.0
     3.0111        0.0  4.824E-02        0.0
      3.017        0.0  4.676E-02        0.0
     3.0272        0.0  4.552E-02        0.0
     3.0331        0.0  4.775E-02        0.0
     3.0418        0.0  4.725E-02        0.0
     3.0462        0.0  4.849E-02        0.0
     3.0491        0.0  4.429E-02        0.0
     3.0564        0.0  4.676E-02        0.0
     3.0638        0.0  4.429E-02        0.0
     3.0652        0.0  4.726E-02        0.0
     3.0681        0.0  4.553E-02        0.0
     3.0754        0.0  4.405E-02        0.0
     3.0828        0.0  4.257E-02        0.0
       3.09        0.0  4.578E-02        0.0
     3.0959        0.0  4.257E-02        0.0
     3.1076        0.0  4.282E-02        0.0
     3.1208        0.0  3.985E-02        0.0
     3.1281        0.0  3.541E-02        0.0
     3.1325        0.0  3.294E-02        0.0
     3.1442        0.0  3.146E-02        0.0
       3.15        0.0  2.875E-02        0.0
     3.1588        0.0  3.097E-02        0.0
     3.1631        0.0  3.690E-02        0.0
     3.1675        0.0  4.085E-02        0.0
     3.1763        0.0  4.060E-02        0.0
     3.1836        0.0  4.208E-02        0.0
     3.1953        0.0  4.233E-02        0.0
     3.2055        0.0  4.110E-02        0.0
     3.2113        0.0  4.233E-02        0.0
     3.2215        0.0  4.258E-02        0.0
     3.2332        0.0  3.987E-02        0.0
     3.2449        0.0  3.765E-02        0.0
     3.2449        0.0  3.987E-02        0.0
     3.2494        0.0  2.876E-02        0.0
     3.2508        0.0  3.049E-02        0.0
     3.2523        0.0  3.419E-02        0.0
     3.2596        0.0  3.271E-02        0.0
      3.264        0.0  3.493E-02        0.0
     3.2727        0.0  3.148E-02        0.0
       3.28        0.0  3.321E-02        0.0
     3.2903        0.0  2.605E-02        0.0
     3.2961        0.0  2.926E-02        0.0
     3.3034        0.0  4.358E-02        0.0
     3.3121        0.0  4.951E-02        0.0
     3.3194        0.0  5.272E-02        0.0
     3.3282        0.0  4.556E-02        0.0
     3.3384        0.0  4.581E-02        0.0
     3.3486        0.0  4.581E-02        0.0
      3.353        0.0  4.235E-02        0.0
     3.3618        0.0  4.087E-02        0.0
     3.3677        0.0  3.791E-02        0.0
     3.3779        0.0  3.668E-02        0.0
     3.3925        0.0  3.520E-02        0.0
     3.3969        0.0  3.273E-02        0.0
     3.4057        0.0  3.273E-02        0.0
     3.4159        0.0  3.470E-02        0.0
     3.4217        0.0  3.248E-02        0.0
     3.4291        0.0  3.150E-02        0.0
     3.4393        0.0  3.495E-02        0.0
     3.4437        0.0  3.076E-02        0.0
      3.451        0.0  3.076E-02        0.0
     3.4612        0.0  3.076E-02        0.0
     3.4656        0.0  2.409E-02        0.0
     3.4758        0.0  2.286E-02        0.0
     3.4831        0.0  2.780E-02        0.0
     3.4934        0.0  2.904E-02        0.0
     3.5007        0.0  2.681E-02        0.0
      3.508        0.0  2.435E-02        0.0
     3.5182        0.0  2.583E-02        0.0
     3.5241        0.0  2.138E-02        0.0
     3.5343        0.0  2.114E-02        0.0
     3.5401        0.0  2.410E-02        0.0
     3.5533        0.0  2.509E-02        0.0
     3.5591        0.0  2.386E-02        0.0
     3.5693        0.0  2.509E-02        0.0
     3.5781        0.0  2.386E-02        0.0
     3.5884        0.0  1.818E-02        0.0
     3.5957        0.0  1.201E-02        0.0
     3.6074        0.0  9.048E-03        0.0
     3.6205        0.0  1.399E-02        0.0
     3.6322        0.0  2.757E-02        0.0
     3.6438        0.0  3.399E-02        0.0
     3.6511        0.0  3.078E-02        0.0
     3.6614        0.0  3.004E-02        0.0
     3.6716        0.0  2.733E-02        0.0
     3.6789        0.0  2.585E-02        0.0
     3.6877        0.0  2.511E-02        0.0
     3.6979        0.0  2.462E-02        0.0
     3.7052        0.0  3.104E-02        0.0
     3.7139        0.0  4.264E-02        0.0
     3.7226        0.0  5.030E-02        0.0
     3.7343        0.0  5.030E-02        0.0
     3.7387        0.0  4.363E-02        0.0                                          
EndData:
