Comment: Data were digitized. Energy digitizing error is 0.001 MeV
         data digitizing error is 0.699 (relative units).
         Differetial data are given in relative units.
        

Version: R33
Source: W.A. Schier, et al. Nuclear Physics A, v.226 (1976) 16
Name: Taova Sophiya 
Address1: All-Russia Scientific Research Institute of Experimental Physics
Address2: 607190, Mira, 37, Sarov, Nizhni Novgorod reg., Russia
Address3: tel: (831-30) 2-77-79   fax:( 831-30) 4-55-69
Address4: e-mail: taova@expd.vniief.ru
Serial Number: 
SubFile: 
X4Number: F1061003
Reaction: 19F(a,p0)22Ne
Distribution: Energy
Composition: 
Masses:    4.000,   19.000,    1.000,   22.000
Zeds: 2,  9,  1,  10
Qvalue:        1675.1,      0.00,      0.00,      0.00,      0.00
Theta:     160.
Sigfactors: 1.00, 0.00 
Enfactors:  1000.00, 0.00, 0.00, 0.00
Units: ru
Data:
     2.4957         0.     12.628         0.
     2.5109         0.     12.625         0.
     2.5196         0.     69.465         0.
     2.5326         0.     89.989         0.
     2.5456         0.     64.723         0.
     2.5543         0.     52.089         0.
     2.5651         0.     28.403         0.
     2.5738         0.     34.717         0.
     2.5868         0.     55.241         0.
     2.5955         0.     77.344         0.
     2.6086         0.     107.34         0.
     2.6216         0.     209.97         0.
     2.6433         0.     232.07         0.
      2.652         0.     156.28         0.
     2.6628         0.     96.278         0.
     2.6737         0.     75.749         0.
     2.6845         0.     61.537         0.
     2.6975         0.     53.639         0.
     2.7084         0.     44.163         0.
     2.7171         0.     71.004         0.
     2.7302         0.     285.74         0.
     2.7433         0.     524.16         0.
     2.7563         0.     459.42         0.
     2.7821         0.     50.464         0.
     2.7908         0.     33.094         0.
     2.8038         0.     36.249         0.
     2.8169         0.     39.405         0.
     2.8256         0.      88.35         0.
     2.8472         0.     48.872         0.
     2.8581         0.     53.607         0.
     2.8711         0.     75.709         0.
     2.8798         0.     99.392         0.
      2.895         0.      195.7         0.
     2.9037         0.     140.44         0.
     2.9145         0.     74.122         0.
     2.9232         0.      58.33         0.
     2.9341         0.     53.591         0.
     2.9449         0.     80.431         0.
     2.9558         0.      78.85         0.
     2.9666         0.       59.9         0.
     2.9796         0.     34.635         0.
     2.9883         0.     40.949         0.
     3.0013         0.     44.104         0.
     3.0143         0.     51.996         0.
     3.0209         0.     75.679         0.
     3.0339         0.     70.939         0.
     3.0447         0.     45.674         0.
     3.0664         0.     55.143         0.
     3.0795         0.     58.299         0.
     3.0903         0.     51.981         0.
      3.099         0.     45.663         0.
     3.1098         0.     33.029         0.
     3.1207         0.     20.395         0.
     3.1337         0.     28.288         0.
     3.1424         0.     72.496         0.
     3.1533         0.     140.39         0.
     3.1641         0.     157.76         0.
     3.1771         0.     149.86         0.
      3.188         0.      108.8         0.
     3.1966         0.     61.433         0.
     3.2075         0.     55.115         0.
     3.2205         0.     26.691         0.
     3.2292         0.     42.479         0.
     3.2422         0.     47.213         0.
     3.2509         0.     89.843         0.
     3.2618         0.     151.42         0.
     3.2726         0.     91.417         0.
     3.2856         0.     69.309         0.
     3.2986         0.     77.201         0.
     3.3095         0.     62.989         0.
      3.316         0.     40.882         0.
      3.329         0.     29.827         0.
     3.3399         0.     53.509         0.
     3.3507         0.     80.349         0.
     3.3616         0.     154.56         0.
     3.3703         0.     171.92         0.
     3.3812         0.     236.66         0.
     3.3942         0.     148.23         0.
      3.405         0.     146.65         0.
     3.4137         0.     116.65         0.
     3.4245         0.     111.91         0.
     3.4354         0.     77.174         0.
     3.4462         0.     67.698         0.
     3.4571         0.      75.59         0.
     3.4679         0.     67.693         0.
     3.4809         0.     45.585         0.
     3.4918         0.      36.11         0.
     3.5004         0.     29.792         0.
     3.5135         0.     40.842         0.
     3.5222         0.     89.788         0.
     3.5331         0.     197.15         0.
     3.5482         0.     149.78         0.
     3.5569         0.     108.73         0.
     3.5677         0.     58.199         0.
     3.5786         0.     66.092         0.
     3.5916         0.     51.879         0.
     3.6025         0.     50.298         0.
     3.6133         0.     77.138         0.
     3.6198         0.     111.87         0.
      3.635         0.     111.87         0.
     3.6437         0.     105.55         0.
     3.6546         0.     110.29         0.
     3.6632         0.     72.391         0.
     3.6763         0.     91.335         0.
     3.6871         0.     91.333         0.
     3.6958         0.     119.75         0.
     3.7088         0.     171.85         0.
     3.7197         0.     233.43         0.
     3.7414         0.     279.22         0.
     3.7545         0.     293.42         0.
      3.774         0.     282.37         0.
     3.7848         0.     214.47         0.
     3.7956         0.     186.05         0.
     3.8086         0.     111.83         0.
     3.8173         0.     94.465         0.
     3.8282         0.     107.09         0.
     3.8412         0.     149.72         0.
     3.8499         0.     193.93         0.
     3.8629         0.     268.14         0.
     3.8738         0.      293.4         0.
     3.8846         0.     264.98         0.
     3.8933         0.     182.87         0.
     3.9019         0.     103.92         0.
     3.9171         0.     88.128         0.
     3.9258         0.     73.916         0.
     3.9367         0.     77.072         0.
     3.9475         0.     66.017         0.
     3.9584         0.     77.067         0.
     3.9692         0.     100.75         0.
     3.9822         0.     91.273         0.
     3.9887         0.     42.324         0.
     4.0018         0.     54.953         0.
     4.0104         0.     39.162         0.
     4.0234         0.      23.37         0.
     4.0343         0.     21.789         0.
     4.0473         0.     23.365         0.
     4.0582         0.     31.258         0.
     4.0647         0.     50.204         0.
      4.069         0.     73.887         0.
     4.0821         0.     113.36         0.
     4.0929         0.      140.2         0.
     4.1038         0.     94.406         0.
     4.1146         0.      84.93         0.
     4.1276         0.     86.507         0.
     4.1363         0.     110.19         0.
     4.1472         0.     140.19         0.
     4.1602         0.     141.76         0.
     4.1667         0.     170.18         0.
     4.1798         0.     384.92         0.
     4.1929         0.     609.13         0.
      4.206         0.     605.96         0.
     4.2146         0.     590.17         0.
     4.2255         0.     563.33         0.
     4.2363         0.     549.12         0.
     4.2472         0.     607.54         0.
      4.258         0.     555.43         0.
     4.2667         0.     498.58         0.
     4.2797         0.     452.79         0.
     4.2884         0.     482.79         0.
     4.2992         0.     479.63         0.
     4.3101         0.      459.1         0.
     4.3253         0.     463.84         0.
     4.3426         0.     285.41         0.
     4.3534         0.     228.57         0.
      4.362         0.     163.83         0.
     4.3751         0.      165.4         0.
     4.4185         0.     362.36         0.
     4.4293         0.     340.26         0.
     4.4402         0.     352.88         0.
      4.451         0.     371.82         0.
     4.4619         0.     362.36         0.
     4.4727         0.     494.98         0.
     4.4815         0.     794.98         0.
     4.4924         0.     892.86         0.
     4.5032         0.     832.86         0.
     4.5161         0.     504.44         0.
      4.527         0.     674.96         0.
     4.5357         0.     804.42         0.
     4.5466         0.     974.94         0.
     4.5575         0. 1.0886E+03         0.
     4.5705         0.     892.84         0.
     4.5791         0.     772.84         0.
     4.5921         0.     621.24         0.
     4.6029         0.     400.18         0.
     4.6159         0.     314.92         0.
     4.6246         0.      264.4         0.
     4.6398         0.     245.44         0.
     4.6485         0.     349.64         0.
     4.6572         0.     321.22         0.
     4.6724         0.     289.64         0.
      4.681         0.     267.52         0.
      4.694         0.    194.888         0.
     4.7027         0.    138.044         0.
     4.7136         0.     204.36         0.
     4.7222         0.    134.878         0.
     4.7374         0.     138.03         0.
     4.7461         0.    106.446         0.
     4.7591         0.    103.284         0.
     4.7678         0.    144.332         0.
     4.7787         0.    153.802         0.
     4.7895         0.    175.902         0.
     4.8025         0.    194.844         0.
     4.8091         0.      235.9         0.
     4.8199         0.     264.32         0.
     4.8329         0.      264.3         0.
     4.8416         0.     295.88         0.
     4.8546         0.      248.5         0.
     4.8655         0.     273.76         0.
     4.8763         0.     251.66         0.
     4.8894         0.     245.34         0.
      4.898         0.     223.22         0.
     4.9111         0.     204.28         0.
     4.9219         0.     264.26         0.
     4.9306         0.     317.96         0.
     4.9415         0.     317.94         0.
     4.9545         0.     368.46         0.
     4.9653         0.     415.84         0.
     4.9762         0.      447.4         0.
     4.9871         0.     472.66         0.
     4.9979         0.     453.72         0.
EndData:
