Comment:    Automatically converted from EXFOR
            by the IAEA-NDS EXFOR Web-Retrieval System
            program version-2012/10/18, by V.Zerkin.
            "Investigation of the a-cluster structure of
             22Ne and 22Mg"
            V.Z.Goldberg, G.V.Rogachev, W.H.Trzaska, J.J.Kolata, 
            A.Andreyev, C.Angulo, M.J.G.Borge, S.Cherubini, 
            G.Chubarian, G.Crowley, P.Van Duppen, M.Gorska, 
            M.Gulino, M.Huyse, P.Jesinger, K.-M.Kallman, 
            M.Lattuada, T.Lonnroth, M.Mutterer, R.Raabe, 
            S.Romano, M.V.Rozhkov, B.B.Skorodumov, C.Spitaleri, 
            O.Tengblad, A.Tumino
            EXFOR: D0352003    Created: 2005-05-19  Updated: 2005-05-22
            X4Reaction:8-O-18(A,EL)8-O-18,,DA; X4Points:1183
            Data converted from C.M. to Lab. 
            LevelEnergy: 0.00
            Theta groupping interval=3.0 deg.

Version:      R33
X4Number:     D0352003
Source:       V.Z.Goldberg+(2004), Jour. Physical Review, Part C, Nuclear Physics, Vol.69, p.024602
Reaction:     18O(a,a0)18O
Distribution: Energy
Sigfactors:   1.00, 0.00
Enfactors:    1.00, 0.00, 0.00, 0.00
Units:        mb
Composition:
Masses:       4.0, 18.0, 4.0, 18.0
Zeds:         2, 8, 2, 8
Qvalue:       -0.0, 0.00, 0.00, 0.00, 0.00
Theta:        174.9
Data:
 2559.00,     0.00,  34.1066,   2.2184
 2567.00,     0.00,  40.1496,   2.3881
 2575.00,     0.00,   42.962,   2.4609
 2583.00,     0.00,  51.7448,   2.6851
 2591.00,     0.00,  45.5987,   2.5094
 2600.00,     0.00,  38.1979,   2.2851
 2608.00,     0.00,  46.9382,   2.5215
 2617.00,     0.00,  43.6954,   2.4245
 2626.00,     0.00,   39.992,   2.3093
 2634.00,     0.00,   39.392,    2.279
 2643.00,     0.00,   43.259,   2.3821
 2652.00,     0.00,  39.1495,   2.2548
 2661.00,     0.00,  37.7615,   2.2124
 2670.00,     0.00,  37.0341,    2.182
 2679.00,     0.00,  40.7921,   2.2851
 2688.00,     0.00,  40.9315,    2.279
 2698.00,     0.00,  40.5072,   2.2608
 2707.00,     0.00,  45.9805,   2.4002
 2716.00,     0.00,  43.7864,   2.3336
 2726.00,     0.00,   46.823,   2.4063
 2735.00,     0.00,  42.0892,    2.273
 2745.00,     0.00,  44.3682,   2.3275
 2755.00,     0.00,  45.0471,   2.3336
 2764.00,     0.00,  45.3017,   2.3336
 2774.00,     0.00,  35.6279,   2.0669
 2784.00,     0.00,  40.8467,   2.2063
 2794.00,     0.00,  41.2588,   2.2124
 2804.00,     0.00,  41.2709,   2.2063
 2814.00,     0.00,  36.9311,   2.0851
 2824.00,     0.00,  38.2524,   2.1154
 2834.00,     0.00,  34.7975,   2.0123
 2844.00,     0.00,  39.6162,   2.1396
 2854.00,     0.00,  36.8887,   2.0608
 2864.00,     0.00,  40.0344,   2.1457
 2875.00,     0.00,  45.6047,    2.279
 2885.00,     0.00,  45.2168,   2.2608
 2895.00,     0.00,  49.4536,   2.3578
 2906.00,     0.00,  50.2416,    2.376
 2917.00,     0.00,  57.9696,   2.5457
 2927.00,     0.00,  56.5149,   2.5094
 2938.00,     0.00,  56.7089,   2.5033
 2949.00,     0.00,  62.6732,   2.6306
 2959.00,     0.00,  55.0239,   2.4548
 2970.00,     0.00,  54.4238,   2.4366
 2981.00,     0.00,  49.3324,   2.3154
 2992.00,     0.00,  49.2596,   2.3093
 3003.00,     0.00,  46.8109,   2.2487
 3014.00,     0.00,  41.4588,   2.1093
 3025.00,     0.00,  40.9679,   2.0911
 3036.00,     0.00,  38.0342,   2.0123
 3048.00,     0.00,  36.1613,   1.9578
 3059.00,     0.00,  33.4641,    1.879
 3070.00,     0.00,  30.2637,    1.782
 3082.00,     0.00,  28.3605,   1.7214
 3093.00,     0.00,  26.2694,   1.6547
 3104.00,     0.00,  23.9904,   1.5759
 3116.00,     0.00,  22.6508,   1.5335
 3128.00,     0.00,  23.7903,   1.5638
 3139.00,     0.00,  25.6451,   1.6244
 3151.00,     0.00,  27.6877,    1.679
 3163.00,     0.00,  33.0762,   1.8366
 3174.00,     0.00,  37.4099,   1.9457
 3186.00,     0.00,  44.0652,   2.1093
 3198.00,     0.00,  53.1146,   2.3154
 3210.00,     0.00,  54.4723,   2.3396
 3222.00,     0.00,  66.1281,    2.576
 3234.00,     0.00,  56.9756,   2.3881
 3246.00,     0.00,  62.0064,   2.4851
 3258.00,     0.00,  59.4728,   2.4306
 3270.00,     0.00,  57.8424,   2.3942
 3282.00,     0.00,  59.1576,   2.4184
 3295.00,     0.00,  52.1266,   2.2669
 3307.00,     0.00,  52.5024,   2.2851
 3319.00,     0.00,  44.6289,   2.0911
 3331.00,     0.00,  41.1073,   2.0063
 3344.00,     0.00,  34.8763,   1.8426
 3356.00,     0.00,  32.6397,    1.782
 3369.00,     0.00,  33.8035,   1.8123
 3381.00,     0.00,  31.9609,   1.7578
 3394.00,     0.00,  35.5128,   1.8487
 3406.00,     0.00,  31.2699,   1.7335
 3419.00,     0.00,  33.3853,   1.7881
 3432.00,     0.00,  29.7788,    1.685
 3444.00,     0.00,  29.3303,   1.6729
 3457.00,     0.00,  25.1784,   1.5456
 3470.00,     0.00,  25.1178,   1.5456
 3483.00,     0.00,  20.4264,    1.388
 3496.00,     0.00,  18.3837,   1.3153
 3508.00,     0.00,  13.7166,   1.1335
 3521.00,     0.00,  16.5957,   1.2486
 3534.00,     0.00,   19.002,   1.3335
 3547.00,     0.00,  19.9051,   1.3638
 3560.00,     0.00,  28.3545,   1.6244
 3573.00,     0.00,  27.7483,   1.6062
 3586.00,     0.00,   31.876,   1.7214
 3600.00,     0.00,  28.9363,   1.6365
 3613.00,     0.00,  30.6395,    1.685
 3626.00,     0.00,  30.2092,   1.6729
 3639.00,     0.00,   32.367,   1.7275
 3653.00,     0.00,  34.0641,   1.7699
 3666.00,     0.00,   34.943,   1.7941
 3679.00,     0.00,  37.1917,   1.8487
 3693.00,     0.00,  33.4641,   1.7517
 3706.00,     0.00,  31.6699,   1.7032
 3719.00,     0.00,  26.6876,   1.5638
 3733.00,     0.00,  24.0995,    1.485
 3746.00,     0.00,  19.1414,   1.3213
 3760.00,     0.00,  16.9896,   1.2426
 3773.00,     0.00,  13.2256,   1.0971
 3787.00,     0.00,  13.0195,    1.085
 3801.00,     0.00,  10.6556,   0.9819
 3814.00,     0.00,   9.7343,   0.9395
 3828.00,     0.00,  14.3106,   1.1335
 3841.00,     0.00,  19.3172,   1.3153
 3855.00,     0.00,  27.7604,    1.582
 3869.00,     0.00,  39.2647,    1.879
 3883.00,     0.00,  50.3264,   2.1275
 3897.00,     0.00,  61.0366,   2.3396
 3910.00,     0.00,  69.2799,   2.4912
 3924.00,     0.00,  73.3409,   2.5578
 3938.00,     0.00,  62.4913,   2.3639
 3952.00,     0.00,  63.2793,    2.376
 3966.00,     0.00,    55.43,   2.2184
 3980.00,     0.00,  50.5325,   2.1154
 3994.00,     0.00,  53.6298,    2.176
 4008.00,     0.00,  53.6843,    2.176
 4022.00,     0.00,  49.4475,   2.0911
 4036.00,     0.00,   56.521,   2.2366
 4050.00,     0.00,  54.7996,   2.2002
 4064.00,     0.00,  50.6113,   2.1154
 4078.00,     0.00,  43.1499,   1.9517
 4093.00,     0.00,  42.1438,   1.9275
 4107.00,     0.00,  36.6038,   1.7941
 4121.00,     0.00,    31.87,   1.6729
 4135.00,     0.00,  33.1428,   1.7032
 4149.00,     0.00,  43.6348,   1.9578
 4164.00,     0.00,  54.3026,    2.182
 4178.00,     0.00,  71.6438,   2.5033
 4192.00,     0.00,  83.8269,   2.7094
 4207.00,     0.00,  97.8283,   2.9276
 4221.00,     0.00,  124.619,   3.3034
 4236.00,     0.00, 141.9541,   3.5216
 4250.00,     0.00, 170.8056,   3.8549
 4264.00,     0.00,  194.808,   4.1156
 4279.00,     0.00, 215.2344,   4.3277
 4293.00,     0.00, 205.5364,   4.2247
 4308.00,     0.00, 183.1705,   3.9883
 4322.00,     0.00, 155.6525,   3.6792
 4337.00,     0.00, 137.1657,   3.4488
 4351.00,     0.00, 113.9512,   3.1458
 4366.00,     0.00, 101.6469,     2.97
 4381.00,     0.00,  87.7667,   2.7579
 4395.00,     0.00,  79.0991,   2.6185
 4410.00,     0.00,  72.9166,   2.5154
 4425.00,     0.00,   69.886,   2.4609
 4439.00,     0.00,  72.9773,   2.5154
 4454.00,     0.00,  76.3715,     2.57
 4469.00,     0.00,  74.1895,   2.5336
 4483.00,     0.00,   87.403,   2.7518
 4498.00,     0.00, 107.4051,   3.0488
 4513.00,     0.00, 136.6202,   3.4367
 4528.00,     0.00, 157.7133,   3.6913
 4543.00,     0.00, 181.1097,   3.9519
 4557.00,     0.00,  187.777,   4.0247
 4572.00,     0.00, 160.5015,   3.7216
 4587.00,     0.00, 144.6816,   3.5337
 4602.00,     0.00, 100.4346,   2.9397
 4617.00,     0.00,  71.2801,    2.479
 4632.00,     0.00,  43.3136,   1.9335
 4647.00,     0.00,  40.0041,   1.8547
 4662.00,     0.00,  42.1619,   1.9032
 4677.00,     0.00,  57.0665,   2.2184
 4692.00,     0.00,  66.9766,   2.4002
 4707.00,     0.00,  82.1903,   2.6548
 4722.00,     0.00,  90.3124,   2.7882
 4737.00,     0.00,  102.253,   2.9639
 4752.00,     0.00, 105.5261,   3.0124
 4767.00,     0.00, 112.5571,   3.1155
 4782.00,     0.00, 114.5573,   3.1397
 4797.00,     0.00, 111.7085,   3.0973
 4812.00,     0.00, 111.3449,   3.0912
 4827.00,     0.00, 125.1039,   3.2791
 4842.00,     0.00, 127.3465,   3.3094
 4857.00,     0.00, 119.4669,   3.2003
 4873.00,     0.00, 122.2551,   3.2367
 4888.00,     0.00, 108.4961,   3.0488
 4903.00,     0.00,  78.8566,   2.6003
 4918.00,     0.00,  47.9565,   2.0305
 4933.00,     0.00,  29.2636,    1.582
 4949.00,     0.00,  24.1964,   1.4365
 4964.00,     0.00,  30.4335,   1.6183
 4979.00,     0.00,  38.2161,   1.8123
 4994.00,     0.00,  48.5505,   2.0426
 5010.00,     0.00,   50.878,   2.0911
 5025.00,     0.00,  50.9629,   2.0911
 5040.00,     0.00,  51.6417,   2.1093
 5056.00,     0.00,   50.775,   2.0911
 5071.00,     0.00,  48.5808,   2.0426
 5086.00,     0.00,   33.258,   1.6911
 5102.00,     0.00,  32.4397,   1.6668
 5117.00,     0.00,  38.2464,   1.8123
 5133.00,     0.00,    35.44,   1.7456
 5148.00,     0.00,  42.3377,   1.9032
 5163.00,     0.00,  47.0594,   2.0123
 5179.00,     0.00,  49.2475,   2.0548
 5194.00,     0.00,  50.9386,   2.0911
 5210.00,     0.00,  58.4485,   2.2366
 5225.00,     0.00,  57.1089,   2.2124
 5241.00,     0.00,  52.6479,   2.1275
 5256.00,     0.00,  50.4719,   2.0851
 5272.00,     0.00,   47.811,   2.0305
EndData:

