Comment:    Automatically converted from EXFOR
            by the IAEA-NDS EXFOR Web-Retrieval System
            program version-2012/10/18, by V.Zerkin.
            "Investigation of the a-cluster structure of
             22Ne and 22Mg"
            V.Z.Goldberg, G.V.Rogachev, W.H.Trzaska, J.J.Kolata, 
            A.Andreyev, C.Angulo, M.J.G.Borge, S.Cherubini, 
            G.Chubarian, G.Crowley, P.Van Duppen, M.Gorska, 
            M.Gulino, M.Huyse, P.Jesinger, K.-M.Kallman, 
            M.Lattuada, T.Lonnroth, M.Mutterer, R.Raabe, 
            S.Romano, M.V.Rozhkov, B.B.Skorodumov, C.Spitaleri, 
            O.Tengblad, A.Tumino
            EXFOR: D0352003    Created: 2005-05-19  Updated: 2005-05-22
            X4Reaction:8-O-18(A,EL)8-O-18,,DA; X4Points:1183
            Data converted from C.M. to Lab. 
            LevelEnergy: 0.00
            Theta groupping interval=3.0 deg.

Version:      R33
X4Number:     D0352003
Source:       V.Z.Goldberg+(2004), Jour. Physical Review, Part C, Nuclear Physics, Vol.69, p.024602
Reaction:     18O(a,a0)18O
Distribution: Energy
Sigfactors:   1.00, 0.00
Enfactors:    1.00, 0.00, 0.00, 0.00
Units:        mb
Composition:
Masses:       4.0, 18.0, 4.0, 18.0
Zeds:         2, 8, 2, 8
Qvalue:       -0.0, 0.00, 0.00, 0.00, 0.00
Theta:        160.3
Data:
 3324.00,     0.00,  58.0006,   2.4657
 3336.00,     0.00,  58.8848,   2.4782
 3348.00,     0.00,  60.5847,   2.5093
 3360.00,     0.00,  60.1488,   2.4969
 3372.00,     0.00,  56.4066,   2.4159
 3384.00,     0.00,  58.5921,   2.4533
 3396.00,     0.00,  53.5175,   2.3474
 3408.00,     0.00,  47.4403,   2.2042
 3421.00,     0.00,  45.6844,   2.1606
 3433.00,     0.00,  41.3943,   2.0548
 3445.00,     0.00,  44.8501,   2.1357
 3457.00,     0.00,  38.2063,   1.9676
 3470.00,     0.00,  34.3334,   1.8617
 3482.00,     0.00,  34.9249,   1.8742
 3495.00,     0.00,  31.4193,   1.7746
 3507.00,     0.00,  35.2425,   1.8804
 3520.00,     0.00,  29.1653,   1.7061
 3532.00,     0.00,  25.6099,   1.6002
 3545.00,     0.00,  27.4406,     1.65
 3557.00,     0.00,  25.3111,   1.5878
 3570.00,     0.00,  22.8889,   1.5068
 3582.00,     0.00,  21.9674,   1.4757
 3595.00,     0.00,  21.4381,    1.457
 3608.00,     0.00,  19.8254,    1.401
 3621.00,     0.00,  24.2961,   1.5442
 3633.00,     0.00,  22.0546,   1.4695
 3646.00,     0.00,  25.1056,   1.5691
 3659.00,     0.00,  23.8852,   1.5255
 3672.00,     0.00,  28.2126,   1.6563
 3685.00,     0.00,  28.4555,   1.6625
 3698.00,     0.00,  29.9623,   1.7061
 3711.00,     0.00,  33.4056,   1.7995
 3724.00,     0.00,  35.2113,   1.8431
 3737.00,     0.00,  34.8813,   1.8368
 3750.00,     0.00,  37.3346,   1.8991
 3763.00,     0.00,  34.0843,   1.8119
 3776.00,     0.00,  36.8116,   1.8804
 3789.00,     0.00,  30.8029,   1.7185
 3803.00,     0.00,  28.6547,   1.6563
 3816.00,     0.00,  28.6111,   1.6563
 3829.00,     0.00,  25.5041,   1.5629
 3842.00,     0.00,  20.5041,    1.401
 3856.00,     0.00,  20.6536,    1.401
 3869.00,     0.00,  17.1916,   1.2764
 3882.00,     0.00,  15.7346,   1.2204
 3896.00,     0.00,  17.3161,   1.2827
 3909.00,     0.00,  18.8043,   1.3325
 3923.00,     0.00,  23.9848,   1.5068
 3936.00,     0.00,  28.6921,   1.6438
 3950.00,     0.00,  35.0494,   1.8182
 3963.00,     0.00,  39.5948,   1.9302
 3977.00,     0.00,  43.9597,   2.0299
 3990.00,     0.00,  50.2049,   2.1731
 4004.00,     0.00,  58.6793,   2.3474
 4017.00,     0.00,  63.6357,   2.4408
 4031.00,     0.00,  65.0055,   2.4657
 4045.00,     0.00,  61.5809,   2.3972
 4058.00,     0.00,  60.8462,   2.3786
 4072.00,     0.00,  58.4614,    2.335
 4086.00,     0.00,  57.0293,   2.3038
 4100.00,     0.00,  57.6395,   2.3163
 4113.00,     0.00,  54.8251,    2.254
 4127.00,     0.00,  53.7728,   2.2353
 4141.00,     0.00,  55.8525,   2.2789
 4155.00,     0.00,  51.8052,   2.1918
 4169.00,     0.00,  48.7728,   2.1233
 4183.00,     0.00,  42.8763,   1.9925
 4197.00,     0.00,  45.6969,   2.0548
 4211.00,     0.00,  47.4217,   2.0921
 4225.00,     0.00,  50.3357,   2.1544
 4239.00,     0.00,  54.5262,   2.2416
 4253.00,     0.00,  62.1102,    2.391
 4267.00,     0.00,  70.2359,   2.5404
 4281.00,     0.00,  80.1361,   2.7148
 4295.00,     0.00,  94.2082,   2.9389
 4309.00,     0.00, 107.4708,   3.1382
 4323.00,     0.00,  117.807,   3.2814
 4337.00,     0.00, 137.2339,   3.5429
 4351.00,     0.00, 139.1641,   3.5678
 4365.00,     0.00, 152.6758,   3.7422
 4380.00,     0.00, 149.9361,   3.7048
 4394.00,     0.00, 145.1417,   3.6426
 4408.00,     0.00, 139.4132,   3.5616
 4422.00,     0.00,   126.96,   3.3997
 4436.00,     0.00, 108.6539,   3.1507
 4451.00,     0.00,  99.6876,   3.0199
 4465.00,     0.00,  85.8023,    2.802
 4479.00,     0.00,  80.1984,   2.7023
 4494.00,     0.00,  78.8285,   2.6774
 4508.00,     0.00,  77.5832,   2.6525
 4522.00,     0.00,  78.4549,    2.665
 4537.00,     0.00,  78.5795,   2.6712
 4551.00,     0.00,  89.6005,    2.858
 4566.00,     0.00,  91.0326,   2.8767
 4580.00,     0.00,  99.6876,   3.0074
 4595.00,     0.00, 112.0785,    3.188
 4609.00,     0.00, 125.8392,   3.3748
 4624.00,     0.00, 120.0485,   3.3001
 4638.00,     0.00, 129.1393,   3.4246
 4653.00,     0.00, 121.4184,   3.3188
 4667.00,     0.00, 111.6426,   3.1818
 4682.00,     0.00,   92.278,   2.8891
EndData:

