Comment:    Automatically converted from EXFOR
            by the IAEA-NDS EXFOR Web-Retrieval System
            program version-2012/10/18, by V.Zerkin.
            "Investigation of the a-cluster structure of
             22Ne and 22Mg"
            V.Z.Goldberg, G.V.Rogachev, W.H.Trzaska, J.J.Kolata, 
            A.Andreyev, C.Angulo, M.J.G.Borge, S.Cherubini, 
            G.Chubarian, G.Crowley, P.Van Duppen, M.Gorska, 
            M.Gulino, M.Huyse, P.Jesinger, K.-M.Kallman, 
            M.Lattuada, T.Lonnroth, M.Mutterer, R.Raabe, 
            S.Romano, M.V.Rozhkov, B.B.Skorodumov, C.Spitaleri, 
            O.Tengblad, A.Tumino
            EXFOR: D0352003    Created: 2005-05-19  Updated: 2005-05-22
            X4Reaction:8-O-18(A,EL)8-O-18,,DA; X4Points:1183
            Data converted from C.M. to Lab. 
            LevelEnergy: 0.00
            Theta groupping interval=3.0 deg.

Version:      R33
X4Number:     D0352003
Source:       V.Z.Goldberg+(2004), Jour. Physical Review, Part C, Nuclear Physics, Vol.69, p.024602
Reaction:     18O(a,a0)18O
Distribution: Energy
Sigfactors:   1.00, 0.00
Enfactors:    1.00, 0.00, 0.00, 0.00
Units:        mb
Composition:
Masses:       4.0, 18.0, 4.0, 18.0
Zeds:         2, 8, 2, 8
Qvalue:       -0.0, 0.00, 0.00, 0.00, 0.00
Theta:        166.9
Data:
 2639.00,     0.00,  43.3712,   2.5001
 2647.00,     0.00,  38.8981,   2.3591
 2656.00,     0.00,  34.7497,   2.2182
 2665.00,     0.00,  38.2547,   2.3224
 2674.00,     0.00,  35.8404,   2.2366
 2683.00,     0.00,  37.8932,   2.2917
 2692.00,     0.00,  39.5537,   2.3285
 2701.00,     0.00,  39.9827,   2.3346
 2710.00,     0.00,  36.8821,   2.2366
 2720.00,     0.00,  40.8283,   2.3469
 2729.00,     0.00,  42.0599,   2.3714
 2739.00,     0.00,  42.0783,   2.3653
 2748.00,     0.00,  39.4496,   2.2856
 2757.00,     0.00,  45.8039,   2.4572
 2767.00,     0.00,  42.5073,   2.3591
 2777.00,     0.00,   39.903,   2.2795
 2787.00,     0.00,   38.751,   2.2366
 2796.00,     0.00,  39.1677,   2.2427
 2806.00,     0.00,  37.1701,   2.1814
 2816.00,     0.00,  39.5109,   2.2427
 2826.00,     0.00,  35.3808,    2.114
 2836.00,     0.00,  40.1297,   2.2488
 2846.00,     0.00,  39.5905,   2.2243
 2856.00,     0.00,  38.5488,   2.1937
 2866.00,     0.00,   44.848,   2.3591
 2877.00,     0.00,   46.239,   2.3898
 2887.00,     0.00,  48.8555,    2.451
 2897.00,     0.00,  48.7513,   2.4449
 2908.00,     0.00,  48.3836,   2.4265
 2918.00,     0.00,  51.6558,   2.5001
 2929.00,     0.00,  55.0137,   2.5736
 2939.00,     0.00,  53.6411,   2.5368
 2950.00,     0.00,  55.9757,   2.5859
 2961.00,     0.00,  47.8444,   2.3836
 2971.00,     0.00,  52.7833,   2.4939
 2982.00,     0.00,  46.2819,   2.3346
 2993.00,     0.00,  45.2218,   2.2979
 3004.00,     0.00,  45.2218,   2.2917
 3015.00,     0.00,  44.5294,   2.2672
 3026.00,     0.00,  43.7328,   2.2427
 3037.00,     0.00,   38.365,   2.0956
 3048.00,     0.00,  34.3759,   1.9792
 3060.00,     0.00,  30.4052,   1.8628
 3071.00,     0.00,  30.6687,   1.8689
 3082.00,     0.00,  25.6992,   1.7035
 3094.00,     0.00,  24.0325,   1.6483
 3105.00,     0.00,  23.3891,   1.6238
 3116.00,     0.00,  23.8425,   1.6361
 3128.00,     0.00,  24.7372,   1.6606
 3140.00,     0.00,  26.1772,   1.7035
 3151.00,     0.00,  29.9456,   1.8199
 3163.00,     0.00,  28.8488,   1.7831
 3174.00,     0.00,  34.8906,   1.9547
 3186.00,     0.00,  42.9668,   2.1692
 3198.00,     0.00,  43.9105,   2.1876
 3210.00,     0.00,  48.8616,    2.304
 3222.00,     0.00,  54.4867,   2.4265
 3234.00,     0.00,  57.3728,   2.4878
 3246.00,     0.00,  60.4612,    2.543
 3258.00,     0.00,  59.0334,   2.5123
 3270.00,     0.00,  57.5077,   2.4756
 3282.00,     0.00,  57.0297,   2.4633
 3294.00,     0.00,  50.7795,   2.3224
 3306.00,     0.00,  48.3836,   2.2611
 4674.00,     0.00,  47.6606,   2.0956
 4689.00,     0.00,  59.0273,   2.3285
 4704.00,     0.00,  77.6369,   2.6716
 4719.00,     0.00,  83.7032,   2.7758
 4734.00,     0.00,  93.5687,   2.9413
 4749.00,     0.00,  98.7771,   3.0148
 4764.00,     0.00,  97.4291,   2.9903
 4779.00,     0.00, 107.6622,   3.1435
 4794.00,     0.00, 105.8239,    3.119
 4809.00,     0.00, 116.6085,   3.2783
 4824.00,     0.00, 116.3634,   3.2721
 4839.00,     0.00, 115.5055,   3.2599
 4854.00,     0.00, 116.7923,   3.2783
 4870.00,     0.00, 109.8068,   3.1802
 4885.00,     0.00, 103.6179,   3.0944
 4900.00,     0.00,  86.3993,   2.8187
 4915.00,     0.00,  68.8744,   2.5123
 4930.00,     0.00,  48.1569,   2.1018
 4946.00,     0.00,  35.8649,   1.8138
 4961.00,     0.00,  35.0561,   1.7954
 4976.00,     0.00,  35.0622,   1.7954
 4991.00,     0.00,  42.8565,   1.9853
 5007.00,     0.00,  46.0245,   2.0589
 5022.00,     0.00,  48.6778,   2.1202
 5037.00,     0.00,  47.4216,   2.0895
 5053.00,     0.00,  47.7464,   2.0956
 5068.00,     0.00,  45.1666,   2.0405
 5083.00,     0.00,  42.6788,   1.9853
 5099.00,     0.00,  33.8612,   1.7648
 5114.00,     0.00,  35.0132,   1.7893
 5129.00,     0.00,  34.0205,   1.7648
 5145.00,     0.00,  37.1027,   1.8444
 5160.00,     0.00,  44.6029,   2.0282
 5176.00,     0.00,  48.2488,   2.1079
 5191.00,     0.00,  56.3986,   2.2795
 5207.00,     0.00,   50.755,    2.163
 5222.00,     0.00,  56.0309,   2.2733
 5238.00,     0.00,  56.4966,   2.2795
 5253.00,     0.00,  48.4449,   2.1079
EndData:

