Comment:    Automatically converted from EXFOR
            by the IAEA-NDS EXFOR Web-Retrieval System
            program version-2012/10/18, by V.Zerkin.
            "Investigation of the a-cluster structure of
             22Ne and 22Mg"
            V.Z.Goldberg, G.V.Rogachev, W.H.Trzaska, J.J.Kolata, 
            A.Andreyev, C.Angulo, M.J.G.Borge, S.Cherubini, 
            G.Chubarian, G.Crowley, P.Van Duppen, M.Gorska, 
            M.Gulino, M.Huyse, P.Jesinger, K.-M.Kallman, 
            M.Lattuada, T.Lonnroth, M.Mutterer, R.Raabe, 
            S.Romano, M.V.Rozhkov, B.B.Skorodumov, C.Spitaleri, 
            O.Tengblad, A.Tumino
            EXFOR: D0352003    Created: 2005-05-19  Updated: 2005-05-22
            X4Reaction:8-O-18(A,EL)8-O-18,,DA; X4Points:1183
            Data converted from C.M. to Lab. 
            LevelEnergy: 0.00
            Theta groupping interval=3.0 deg.

Version:      R33
X4Number:     D0352003
Source:       V.Z.Goldberg+(2004), Jour. Physical Review, Part C, Nuclear Physics, Vol.69, p.024602
Reaction:     18O(a,a0)18O
Distribution: Energy
Sigfactors:   1.00, 0.00
Enfactors:    1.00, 0.00, 0.00, 0.00
Units:        mb
Composition:
Masses:       4.0, 18.0, 4.0, 18.0
Zeds:         2, 8, 2, 8
Qvalue:       -0.0, 0.00, 0.00, 0.00, 0.00
Theta:        155.3
Data:
 2628.00,     0.00,  53.0004,   2.8288
 2637.00,     0.00,  43.3053,    2.544
 2645.00,     0.00,  45.9379,   2.6073
 2653.00,     0.00,  42.0839,   2.4807
 2661.00,     0.00,  40.9131,   2.4301
 2670.00,     0.00,  43.7799,   2.4997
 2678.00,     0.00,  39.0842,   2.3542
 2687.00,     0.00,  45.0076,   2.5124
 2696.00,     0.00,  39.6664,   2.3478
 2705.00,     0.00,  42.2864,   2.4175
 2714.00,     0.00,  38.5526,   2.2972
 2723.00,     0.00,  42.6345,   2.4111
 2732.00,     0.00,  42.8623,   2.4048
 2741.00,     0.00,  43.4888,   2.4175
 2750.00,     0.00,   44.109,   2.4238
 2759.00,     0.00,   40.622,   2.3162
 2769.00,     0.00,  42.4509,   2.3605
 2778.00,     0.00,  41.2549,   2.3225
 2788.00,     0.00,  43.8305,   2.3858
 2797.00,     0.00,  40.9827,   2.2972
 2807.00,     0.00,  41.9004,   2.3162
 2816.00,     0.00,  41.7865,   2.3099
 2826.00,     0.00,  41.2928,   2.2846
 2836.00,     0.00,  40.8309,   2.2656
 2846.00,     0.00,  37.4958,   2.1706
 2856.00,     0.00,  41.0587,   2.2656
 2866.00,     0.00,  43.0838,   2.3099
 2876.00,     0.00,  44.8114,   2.3542
 2886.00,     0.00,  44.4317,   2.3352
 2896.00,     0.00,  52.3549,    2.525
 2906.00,     0.00,  46.9631,   2.3858
 2916.00,     0.00,  53.3358,   2.5377
 2927.00,     0.00,  49.7982,   2.4428
 2937.00,     0.00,    50.95,   2.4681
 2948.00,     0.00,  59.2086,   2.6516
 2958.00,     0.00,   52.627,   2.4934
 2969.00,     0.00,  53.3928,    2.506
 2979.00,     0.00,  52.4751,   2.4744
 2990.00,     0.00,  48.5452,   2.3795
 3001.00,     0.00,  48.9312,   2.3795
 3011.00,     0.00,   47.096,   2.3289
 3022.00,     0.00,  45.6088,   2.2909
 3033.00,     0.00,  44.1406,   2.2466
 3044.00,     0.00,  44.5013,   2.2529
 3055.00,     0.00,  40.2233,   2.1327
 3066.00,     0.00,  33.9456,   1.9555
 3077.00,     0.00,  38.6223,    2.082
 3089.00,     0.00,  31.0725,   1.8606
 3100.00,     0.00,  31.0408,   1.8606
 3111.00,     0.00,  33.3444,   1.9238
 3122.00,     0.00,  28.4525,    1.772
 3134.00,     0.00,  29.4208,   1.7973
 3145.00,     0.00,  29.9523,   1.8099
 3157.00,     0.00,  33.7494,   1.9175
 3168.00,     0.00,  40.1221,   2.0884
 3180.00,     0.00,  36.9389,   1.9998
 3192.00,     0.00,  44.6532,   2.1896
 3203.00,     0.00,  51.3423,   2.3478
 3215.00,     0.00,  53.3801,   2.3858
 3227.00,     0.00,  56.3481,   2.4491
 3239.00,     0.00,  63.2144,   2.5883
 3251.00,     0.00,  60.9742,   2.5377
 3263.00,     0.00,  58.3416,   2.4744
 3274.00,     0.00,  57.0949,   2.4428
 3287.00,     0.00,  57.8859,   2.4554
 3299.00,     0.00,  53.3421,   2.3542
 3311.00,     0.00,  49.9817,   2.2719
 4699.00,     0.00,  59.0946,    2.196
 4713.00,     0.00,  66.0053,   2.3225
 4728.00,     0.00,  68.4101,   2.3668
 4743.00,     0.00,  74.1689,   2.4617
 4758.00,     0.00,  74.9283,   2.4744
 4772.00,     0.00,  81.8896,   2.5883
 4787.00,     0.00,  88.3445,   2.6832
 4802.00,     0.00,  86.0663,   2.6453
 4817.00,     0.00,  93.5338,   2.7592
 4832.00,     0.00,  91.7619,   2.7339
 4847.00,     0.00,  90.1798,   2.7149
 4861.00,     0.00,  87.9648,   2.6832
 4876.00,     0.00,  84.6108,   2.6263
 4891.00,     0.00,  77.5862,   2.5187
 4906.00,     0.00,  70.3086,   2.3985
 4921.00,     0.00,   64.613,   2.2972
 4936.00,     0.00,  58.4618,   2.1833
 4951.00,     0.00,  54.8356,   2.1137
 4966.00,     0.00,  49.9564,   2.0188
 4981.00,     0.00,  44.0267,   1.8922
 4996.00,     0.00,  45.5076,   1.9238
 5011.00,     0.00,  42.2421,   1.8542
 5026.00,     0.00,  44.4191,   1.8985
 5041.00,     0.00,  43.7166,   1.8859
 5056.00,     0.00,  43.4445,   1.8795
 5071.00,     0.00,   47.134,   1.9618
 5086.00,     0.00,  42.0016,   1.8479
 5101.00,     0.00,  41.9826,   1.8479
 5116.00,     0.00,    44.90,   1.9112
 5132.00,     0.00,  42.5142,   1.8606
 5147.00,     0.00,  45.8303,   1.9302
 5162.00,     0.00,  48.5768,   1.9871
 5177.00,     0.00,  51.3234,   2.0441
 5192.00,     0.00,  50.6462,   2.0314
 5207.00,     0.00,  51.6588,   2.0504
 5222.00,     0.00,  53.8421,   2.0947
 5238.00,     0.00,  55.0824,     2.12
 5253.00,     0.00,  50.5829,   2.0314
 5268.00,     0.00,  52.3675,   2.0694
EndData:

