Comment:    Automatically converted from EXFOR
            by the IAEA-NDS EXFOR Web-Retrieval System
            program version-2012/10/18, by V.Zerkin.
            "Investigation of the a-cluster structure of
             22Ne and 22Mg"
            V.Z.Goldberg, G.V.Rogachev, W.H.Trzaska, J.J.Kolata, 
            A.Andreyev, C.Angulo, M.J.G.Borge, S.Cherubini, 
            G.Chubarian, G.Crowley, P.Van Duppen, M.Gorska, 
            M.Gulino, M.Huyse, P.Jesinger, K.-M.Kallman, 
            M.Lattuada, T.Lonnroth, M.Mutterer, R.Raabe, 
            S.Romano, M.V.Rozhkov, B.B.Skorodumov, C.Spitaleri, 
            O.Tengblad, A.Tumino
            EXFOR: D0352003    Created: 2005-05-19  Updated: 2005-05-22
            X4Reaction:8-O-18(A,EL)8-O-18,,DA; X4Points:1183
            Data converted from C.M. to Lab. 
            LevelEnergy: 0.00
            Theta groupping interval=3.0 deg.

Version:      R33
X4Number:     D0352003
Source:       V.Z.Goldberg+(2004), Jour. Physical Review, Part C, Nuclear Physics, Vol.69, p.024602
Reaction:     18O(a,a0)18O
Distribution: Energy
Sigfactors:   1.00, 0.00
Enfactors:    1.00, 0.00, 0.00, 0.00
Units:        mb
Composition:
Masses:       4.0, 18.0, 4.0, 18.0
Zeds:         2, 8, 2, 8
Qvalue:       -0.0, 0.00, 0.00, 0.00, 0.00
Theta:        126.8
Data:
 3296.00,     0.00,  32.7516,   2.2516
 3307.00,     0.00,  33.1931,    2.259
 3317.00,     0.00,  33.7744,   2.2737
 3327.00,     0.00,  35.2461,   2.3105
 3338.00,     0.00,  31.2653,   2.1707
 3348.00,     0.00,  34.0908,   2.2663
 3359.00,     0.00,  37.9392,   2.3767
 3369.00,     0.00,  38.6162,   2.3914
 3380.00,     0.00,  39.2931,   2.4062
 3391.00,     0.00,  41.6331,   2.4724
 3402.00,     0.00,  34.4293,   2.2443
 3412.00,     0.00,  42.0304,   2.4797
 3423.00,     0.00,  34.2674,   2.2296
 3434.00,     0.00,  33.0828,   2.1854
 3445.00,     0.00,  33.9216,   2.2075
 3456.00,     0.00,  37.4536,   2.3105
 3467.00,     0.00,  28.7193,   2.0235
 3478.00,     0.00,  33.0975,   2.1633
 3490.00,     0.00,  28.9768,   2.0162
 3501.00,     0.00,   29.801,   2.0382
 3512.00,     0.00,  25.1873,    1.869
 3523.00,     0.00,  29.9408,   2.0382
 3535.00,     0.00,  32.0452,   2.1045
 3546.00,     0.00,  28.0718,   1.9647
 3558.00,     0.00,  28.1233,   1.9647
 3569.00,     0.00,  25.2977,   1.8616
 3581.00,     0.00,  26.7179,   1.9058
 3593.00,     0.00,  27.0048,   1.9131
 3604.00,     0.00,  25.6656,   1.8616
 3616.00,     0.00,   30.397,   2.0235
 3628.00,     0.00,  27.0637,   1.9058
 3640.00,     0.00,  25.2241,   1.8322
 3652.00,     0.00,  25.6509,   1.8469
 3664.00,     0.00,  28.5721,   1.9426
 3676.00,     0.00,  27.7848,   1.9131
 3688.00,     0.00,  27.0269,   1.8837
 3700.00,     0.00,  29.9408,   1.9794
 3712.00,     0.00,   27.748,   1.8984
 3724.00,     0.00,  26.4456,   1.8543
 3736.00,     0.00,  27.2256,   1.8764
 3749.00,     0.00,  22.3691,   1.6924
 3761.00,     0.00,  26.0262,   1.8248
 3773.00,     0.00,  23.0167,   1.7145
 3786.00,     0.00,  30.7208,   1.9794
 3798.00,     0.00,  28.2189,   1.8911
 3811.00,     0.00,  27.1299,   1.8543
 3823.00,     0.00,  26.8577,   1.8469
 3836.00,     0.00,  28.8591,   1.9131
 3848.00,     0.00,  27.4022,   1.8616
 3861.00,     0.00,  33.7229,   2.0603
 3874.00,     0.00,  32.2292,   2.0088
 3886.00,     0.00,  29.7642,   1.9279
 3899.00,     0.00,  34.7899,   2.0824
 3912.00,     0.00,  36.3057,   2.1265
 3925.00,     0.00,  35.3344,   2.0897
 3937.00,     0.00,  40.2939,   2.2296
 3950.00,     0.00,  41.7287,   2.2663
 3963.00,     0.00,  45.1209,   2.3546
 3976.00,     0.00,  44.7088,   2.3399
 3989.00,     0.00,  47.1076,   2.3914
 4002.00,     0.00,  53.1561,   2.5386
 4015.00,     0.00,  48.2776,   2.4209
 4029.00,     0.00,  50.1981,    2.465
 4042.00,     0.00,  49.1679,   2.4429
 4055.00,     0.00,  52.3614,   2.5165
 4068.00,     0.00,  53.5902,    2.546
 4081.00,     0.00,  55.7094,   2.5901
 4094.00,     0.00,  53.7374,   2.5386
 4108.00,     0.00,  50.5366,   2.4577
 4121.00,     0.00,   55.474,   2.5754
 4134.00,     0.00,  54.0759,   2.5386
 4148.00,     0.00,  50.4115,   2.4503
 4161.00,     0.00,  53.4063,   2.5239
 4175.00,     0.00,  54.2231,   2.5386
 4188.00,     0.00,  53.6123,   2.5165
 4202.00,     0.00,  50.1686,   2.4356
 4215.00,     0.00,   49.087,   2.4062
 4229.00,     0.00,  51.9714,   2.4724
 4242.00,     0.00,  52.7735,   2.4871
 4256.00,     0.00,  44.6352,   2.2884
 4270.00,     0.00,  54.3555,   2.5239
 4283.00,     0.00,  51.4931,   2.4577
 4297.00,     0.00,  51.5741,   2.4577
 4311.00,     0.00,  49.4402,   2.3988
 4324.00,     0.00,  53.0163,   2.4797
 4338.00,     0.00,   52.744,   2.4724
 4352.00,     0.00,  44.7015,   2.2737
 4366.00,     0.00,  51.3239,   2.4356
 4380.00,     0.00,  54.9221,   2.5239
 4393.00,     0.00,  57.8139,   2.5901
 4407.00,     0.00,  52.4497,    2.465
 4421.00,     0.00,   54.098,   2.5018
 4435.00,     0.00,  49.7639,   2.3914
 4449.00,     0.00,  50.4409,   2.4062
 4463.00,     0.00,  52.5086,   2.4577
 4477.00,     0.00,  51.8684,   2.4429
 4491.00,     0.00,   51.449,   2.4282
 4505.00,     0.00,  54.0612,   2.4871
 4519.00,     0.00,  50.5218,   2.4062
 4533.00,     0.00,  49.3298,   2.3767
 4547.00,     0.00,  53.4431,   2.4724
 4562.00,     0.00,  54.8117,   2.5018
 4576.00,     0.00,  47.3284,   2.3179
 4590.00,     0.00,  45.4373,   2.2737
 4604.00,     0.00,  50.2864,   2.3914
 4618.00,     0.00,  47.6374,   2.3252
 4633.00,     0.00,  46.8795,   2.3105
 4647.00,     0.00,  47.8287,   2.3326
 4661.00,     0.00,  44.3041,   2.2369
 4675.00,     0.00,  46.6661,   2.2958
 4690.00,     0.00,  48.1966,   2.3326
EndData:

