Comment:    Automatically converted from EXFOR at 2020-09-03,08:27:22
            by the IAEA-NDS EXFOR Web-Retrieval System,
            program X4toR33 ver-2020-05-11 (V.Zerkin).
            X4Title: "Energy Levels in F18 from the N14(alpha,alpha)N14 and
                      N14(alpha,p)O17 Reactions"
            X4Author: E.Kashy, P.D.Miller, J.R.Risser
            EXFOR: C1032002    Created: 2004-04-20  Updated: 2020-04-13
            X4Reaction:7-N-14(A,EL)7-N-14,,DA; X4Points:321
            Converted from C.M. to Lab.: Sigma, Theta
            SigmaLab=SigmaCM/1.9100974
            ThetaLab=163.8 ThetaCM:168.4
            ENSDF:LevelEnergy=0.00
            Systematic uncertainty: ErrSys=5.0%
            AME2016: M1=4.002603254 M2=14.003074004 M3=4.002603254 M4=14.003074004

Version:      R33
X4Number:     C1032002 20200413
Source:       E.Kashy+(1958), Jour. Physical Review, Vol.112, p.547
Reaction:     14N(a,a0)14N
Distribution: Energy
Sigfactors:   1.00, 0.05
Enfactors:    1.00, 0.00, 0.00, 0.00
Units:        mb
Composition:
Masses:       4.0, 14.0, 4.0, 14.0
Zeds:         2, 7, 2, 7
Qvalue:       0.0, 0.00, 0.00, 0.00, 0.00
Theta:        163.8
Data:
  2681.00,      0.00,   26.7002,     0.801
  2692.00,      0.00,   25.1296,    0.7539
  2702.00,      0.00,   23.0355,    0.6911
  2711.00,      0.00,   22.5119,    0.6754
  2724.00,      0.00,   22.5119,    0.6754
  2737.00,      0.00,   20.4178,    0.6125
  2744.00,      0.00,   20.9413,    0.6282
  2755.00,      0.00,   19.8943,    0.5968
  2762.00,      0.00,   17.8001,     0.534
  2777.00,      0.00,   17.2766,    0.5183
  2788.00,      0.00,   20.4178,    0.6125
  2796.00,      0.00,   20.4178,    0.6125
  2812.00,      0.00,   14.6589,    0.4398
  2825.00,      0.00,   12.0413,    0.3612
  2835.00,      0.00,    9.9471,    0.2984
  2845.00,      0.00,    8.9001,     0.267
  2857.00,      0.00,    8.3765,    0.2513
  2881.00,      0.00,    15.706,    0.4712
  2891.00,      0.00,   18.3237,    0.5497
  2907.00,      0.00,   22.5119,    0.6754
  2927.00,      0.00,   25.1296,    0.7539
  2939.00,      0.00,   21.4649,    0.6439
  2949.00,      0.00,   19.8943,    0.5968
  2962.00,      0.00,   18.3237,    0.5497
  2970.00,      0.00,   16.7531,    0.5026
  2979.00,      0.00,   15.1825,    0.4555
  2994.00,      0.00,   12.0413,    0.3612
  3015.00,      0.00,    8.3765,    0.2513
  3032.00,      0.00,     7.853,    0.2356
  3043.00,      0.00,     7.853,    0.2356
  3053.00,      0.00,   10.9942,    0.3298
  3066.00,      0.00,   13.0883,    0.3927
  3078.00,      0.00,   21.4649,    0.6439
  3087.00,      0.00,   26.7002,     0.801
  3102.00,      0.00,   34.0297,    1.0209
  3110.00,      0.00,   38.2179,    1.1465
  3120.00,      0.00,   42.9297,    1.2879
  3136.00,      0.00,   45.5474,    1.3664
  3146.00,      0.00,    46.071,    1.3821
  3159.00,      0.00,   47.6416,    1.4292
  3172.00,      0.00,   48.1651,     1.445
  3186.00,      0.00,   45.0239,    1.3507
  3196.00,      0.00,   45.5474,    1.3664
  3209.00,      0.00,   45.0239,    1.3507
  3216.00,      0.00,   44.5004,     1.335
  3230.00,      0.00,    47.118,    1.4135
  3240.00,      0.00,   45.0239,    1.3507
  3257.00,      0.00,   45.0239,    1.3507
  3265.00,      0.00,   43.9768,    1.3193
  3280.00,      0.00,   43.9768,    1.3193
  3288.00,      0.00,   43.9768,    1.3193
  3302.00,      0.00,   41.3591,    1.2408
  3361.00,      0.00,   38.2179,    1.1465
  3426.00,      0.00,   37.6944,    1.1308
  3477.00,      0.00,   38.7415,    1.1622
  3548.00,      0.00,   42.9297,    1.2879
  3564.00,      0.00,   43.9768,    1.3193
  3576.00,      0.00,   44.5004,     1.335
  3584.00,      0.00,   48.1651,     1.445
  3591.00,      0.00,   52.8769,    1.5863
  3595.00,      0.00,   56.0181,    1.6805
  3599.00,      0.00,   79.0536,    2.3716
  3602.00,      0.00,   79.5771,    2.3873
  3606.00,      0.00,   74.8653,     2.246
  3607.00,      0.00,   56.0181,    1.6805
  3610.00,      0.00,   50.7828,    1.5235
  3614.00,      0.00,   35.0767,    1.0523
  3621.00,      0.00,   36.1238,    1.0837
  3622.00,      0.00,   40.3121,    1.2094
  3624.00,      0.00,   42.9297,    1.2879
  3629.00,      0.00,   50.2592,    1.5078
  3635.00,      0.00,   52.8769,    1.5863
  3642.00,      0.00,   50.2592,    1.5078
  3648.00,      0.00,   50.7828,    1.5235
  3658.00,      0.00,   50.7828,    1.5235
  3660.00,      0.00,    53.924,    1.6177
  3663.00,      0.00,   60.7299,    1.8219
  3669.00,      0.00,   63.3476,    1.9004
  3674.00,      0.00,   70.1535,    2.1046
  3679.00,      0.00,   76.4359,    2.2931
  3694.00,      0.00,   96.8537,    2.9056
  3702.00,      0.00,   109.942,    3.2983
  3705.00,      0.00,  115.1774,    3.4553
  3710.00,      0.00,  121.4598,    3.6438
  3716.00,      0.00,  122.5068,    3.6752
  3723.00,      0.00,  116.2244,    3.4867
  3727.00,      0.00,  107.3244,    3.2197
  3730.00,      0.00,    86.383,    2.5915
  3733.00,      0.00,   75.3888,    2.2617
  3741.00,      0.00,   60.7299,    1.8219
  3750.00,      0.00,   43.9768,    1.3193
  3762.00,      0.00,   34.0297,    1.0209
  3773.00,      0.00,   28.7943,    0.8638
  3787.00,      0.00,   24.6061,    0.7382
  3797.00,      0.00,   24.0825,    0.7225
  3800.00,      0.00,   25.6531,    0.7696
  3808.00,      0.00,   24.0825,    0.7225
  3813.00,      0.00,    23.559,    0.7068
  3820.00,      0.00,   22.5119,    0.6754
  3830.00,      0.00,   22.5119,    0.6754
  3838.00,      0.00,   24.0825,    0.7225
  3851.00,      0.00,   26.7002,     0.801
  3859.00,      0.00,   25.6531,    0.7696
  3861.00,      0.00,   26.7002,     0.801
  3873.00,      0.00,   27.2237,    0.8167
  3881.00,      0.00,   26.1767,    0.7853
  3901.00,      0.00,   20.9413,    0.6282
  3911.00,      0.00,   29.8414,    0.8952
  3919.00,      0.00,   37.1709,    1.1151
  3925.00,      0.00,   37.6944,    1.1308
  3930.00,      0.00,   38.7415,    1.1622
  3938.00,      0.00,   40.3121,    1.2094
  3950.00,      0.00,   46.5945,    1.3978
  3956.00,      0.00,   57.5887,    1.7277
  3957.00,      0.00,    53.924,    1.6177
  3964.00,      0.00,   58.6358,    1.7591
  3967.00,      0.00,   63.3476,    1.9004
  3970.00,      0.00,   69.1064,    2.0732
  3975.00,      0.00,   73.2947,    2.1988
  3981.00,      0.00,   82.7183,    2.4815
  3984.00,      0.00,   79.5771,    2.3873
  3991.00,      0.00,   81.6712,    2.4501
  3998.00,      0.00,   80.1006,     2.403
  4003.00,      0.00,   67.5358,    2.0261
  4007.00,      0.00,   66.4888,    1.9947
  4011.00,      0.00,   68.5829,    2.0575
  4019.00,      0.00,   79.0536,    2.3716
  4022.00,      0.00,   87.9536,    2.6386
  4030.00,      0.00,   91.0948,    2.7328
  4034.00,      0.00,   92.1419,    2.7643
  4044.00,      0.00,   81.6712,    2.4501
  4049.00,      0.00,   75.3888,    2.2617
  4056.00,      0.00,     69.63,    2.0889
  4061.00,      0.00,   64.9182,    1.9475
  4066.00,      0.00,   60.2064,    1.8062
  4071.00,      0.00,   57.0652,     1.712
  4075.00,      0.00,   52.3534,    1.5706
  4082.00,      0.00,   48.6886,    1.4607
  4088.00,      0.00,   47.6416,    1.4292
  4092.00,      0.00,   45.0239,    1.3507
  4097.00,      0.00,   39.0032,    2.5182
  4101.00,      0.00,   32.9826,    0.9895
  4111.00,      0.00,   30.3649,    0.9109
  4116.00,      0.00,   27.7473,    0.8324
  4122.00,      0.00,   27.2237,    0.8167
  4126.00,      0.00,   26.1767,    0.7853
  4131.00,      0.00,   27.2237,    0.8167
  4142.00,      0.00,   26.7002,     0.801
  4149.00,      0.00,   25.6531,    0.7696
  4154.00,      0.00,   24.0825,    0.7225
  4169.00,      0.00,   22.5119,    0.6754
  4182.00,      0.00,   21.4649,    0.6439
  4201.00,      0.00,   18.8472,    0.5654
  4209.00,      0.00,   17.2766,    0.5183
  4220.00,      0.00,   14.6589,    0.4398
  4234.00,      0.00,   13.0883,    0.3927
  4237.00,      0.00,   12.5648,    0.3769
  4251.00,      0.00,    8.3765,    0.2513
  4260.00,      0.00,    6.8059,    0.2042
  4271.00,      0.00,    6.2824,    0.1885
  4279.00,      0.00,    5.7589,    0.1728
  4287.00,      0.00,    4.7118,    0.1414
  4300.00,      0.00,    5.2353,    0.1571
  4308.00,      0.00,    5.2353,    0.1571
  4320.00,      0.00,    5.7589,    0.1728
  4332.00,      0.00,    6.8059,    0.2042
  4340.00,      0.00,    7.3295,    0.2199
  4352.00,      0.00,    7.3295,    0.2199
  4358.00,      0.00,     7.853,    0.2356
  4368.00,      0.00,    8.9001,     0.267
  4376.00,      0.00,    9.4236,    0.2827
  4389.00,      0.00,   10.9942,    0.3298
  4399.00,      0.00,   11.5177,    0.3455
  4407.00,      0.00,   13.6119,    0.4084
  4422.00,      0.00,   14.6589,    0.4398
  4431.00,      0.00,    15.706,    0.4712
  4440.00,      0.00,   16.2295,    0.4869
  4453.00,      0.00,   20.4178,    0.6125
  4457.00,      0.00,   24.6061,    0.7382
  4461.00,      0.00,   26.7002,     0.801
  4471.00,      0.00,   34.5532,    1.0366
  4474.00,      0.00,   48.6886,    1.4607
  4477.00,      0.00,   52.8769,    1.5863
  4481.00,      0.00,   62.3005,     1.869
  4488.00,      0.00,   65.4417,    1.9633
  4495.00,      0.00,   60.7299,    1.8219
  4498.00,      0.00,    47.118,    1.4135
  4501.00,      0.00,   38.2179,    1.1465
  4508.00,      0.00,   30.8885,    0.9267
  4509.00,      0.00,   25.1296,    0.7539
  4520.00,      0.00,   13.6119,    0.4084
  4532.00,      0.00,    8.9001,     0.267
  4540.00,      0.00,    6.8059,    0.2042
  4550.00,      0.00,    6.2824,    0.1885
  4558.00,      0.00,    5.2353,    0.1571
  4571.00,      0.00,    6.2824,    0.1885
  4580.00,      0.00,     7.853,    0.2356
  4591.00,      0.00,    9.4236,    0.2827
  4599.00,      0.00,   11.5177,    0.3455
  4609.00,      0.00,   13.6119,    0.4084
  4627.00,      0.00,   19.3707,    0.5811
  4652.00,      0.00,   20.4178,    0.6125
  4675.00,      0.00,   21.9884,    0.6597
  4695.00,      0.00,   24.6061,    0.7382
EndData:
